"rt"	"trial_type"	"trial_index"	"trial_index_global"	"time_elapsed"	"subject"	"condition"	"problems"	"workerId"	"moveNum"	"src"	"category"	"imageName"	"init_locationsX"	"init_locationsY"	"movesX"	"movesY"	"dropTime"	"dropCorrect"	"dropPosition"	"final_locationsX"	"final_locationsY"	"problem_type"	"responseL"	"responseR"
35527	"active-sort"	0	1	126545	"p104932"	"active"	"pbp16"	"A3K43RI91Y567E"	1	"lib/images/pbp34/problem/pbp34_2-4.jpg"	"right"	"pbp34_2-4.jpg"	425	235	942	241	10010	1	"right"	942	241	"pbp34"	"the square was proceeded by a circle"	"the circle was proceeded by a square"
35527	"active-sort"	0	1	126545	"p104932"	"active"	"pbp16"	"A3K43RI91Y567E"	2	"lib/images/pbp34/problem/pbp34_2-1.jpg"	"left"	"pbp34_2-1.jpg"	425	345	237	241	14104	1	"left"	237	241	"pbp34"	"the square was proceeded by a circle"	"the circle was proceeded by a square"
35527	"active-sort"	0	1	126545	"p104932"	"active"	"pbp16"	"A3K43RI91Y567E"	3	"lib/images/pbp34/problem/pbp34_3-1.jpg"	"left"	"pbp34_3-1.jpg"	425	455	237	348	16491	1	"left"	237	348	"pbp34"	"the square was proceeded by a circle"	"the circle was proceeded by a square"
35527	"active-sort"	0	1	126545	"p104932"	"active"	"pbp16"	"A3K43RI91Y567E"	4	"lib/images/pbp34/problem/pbp34_1-2.jpg"	"left"	"pbp34_1-2.jpg"	535	455	237	455	18367	1	"left"	237	455	"pbp34"	"the square was proceeded by a circle"	"the circle was proceeded by a square"
35527	"active-sort"	0	1	126545	"p104932"	"active"	"pbp16"	"A3K43RI91Y567E"	5	"lib/images/pbp34/problem/pbp34_2-2.jpg"	"left"	"pbp34_2-2.jpg"	645	455	125	455	20578	1	"left"	125	455	"pbp34"	"the square was proceeded by a circle"	"the circle was proceeded by a square"
35527	"active-sort"	0	1	126545	"p104932"	"active"	"pbp16"	"A3K43RI91Y567E"	6	"lib/images/pbp34/problem/pbp34_3-4.jpg"	"right"	"pbp34_3-4.jpg"	755	455	942	348	22742	1	"right"	942	348	"pbp34"	"the square was proceeded by a circle"	"the circle was proceeded by a square"
35527	"active-sort"	0	1	126545	"p104932"	"active"	"pbp16"	"A3K43RI91Y567E"	7	"lib/images/pbp34/problem/pbp34_1-3.jpg"	"right"	"pbp34_1-3.jpg"	755	345	1054	241	24286	1	"right"	1054	241	"pbp34"	"the square was proceeded by a circle"	"the circle was proceeded by a square"
35527	"active-sort"	0	1	126545	"p104932"	"active"	"pbp16"	"A3K43RI91Y567E"	8	"lib/images/pbp34/problem/pbp34_3-3.jpg"	"right"	"pbp34_3-3.jpg"	755	235	1054	348	26164	1	"right"	1054	348	"pbp34"	"the square was proceeded by a circle"	"the circle was proceeded by a square"
35527	"active-sort"	0	1	126545	"p104932"	"active"	"pbp16"	"A3K43RI91Y567E"	9	"lib/images/pbp34/problem/pbp34_2-3.jpg"	"right"	"pbp34_2-3.jpg"	645	345	942	455	28622	1	"right"	942	455	"pbp34"	"the square was proceeded by a circle"	"the circle was proceeded by a square"
35527	"active-sort"	0	1	126546	"p104932"	"active"	"pbp16"	"A3K43RI91Y567E"	10	"lib/images/pbp34/problem/pbp34_1-4.jpg"	"right"	"pbp34_1-4.jpg"	535	345	1054	455	30101	1	"right"	1054	455	"pbp34"	"the square was proceeded by a circle"	"the circle was proceeded by a square"
35527	"active-sort"	0	1	126546	"p104932"	"active"	"pbp16"	"A3K43RI91Y567E"	11	"lib/images/pbp34/problem/pbp34_1-1.jpg"	"left"	"pbp34_1-1.jpg"	645	235	125	241	31469	1	"left"	125	241	"pbp34"	"the square was proceeded by a circle"	"the circle was proceeded by a square"
35527	"active-sort"	0	1	126546	"p104932"	"active"	"pbp16"	"A3K43RI91Y567E"	12	"lib/images/pbp34/problem/pbp34_3-2.jpg"	"left"	"pbp34_3-2.jpg"	535	235	125	348	32522	1	"left"	125	348	"pbp34"	"the square was proceeded by a circle"	"the circle was proceeded by a square"
45904	"active-sort"	0	3	177147	"p104932"	"active"	"pbp16"	"A3K43RI91Y567E"	1	"lib/images/pbp16/problem/pbp16_1-1.jpg"	"left"	"pbp16_1-1.jpg"	535	345	931	251	11569	0	"right"	237	241	"pbp16"	"the square was proceeded by a circle"	"the circle was proceeded by a square"
45904	"active-sort"	0	3	177147	"p104932"	"active"	"pbp16"	"A3K43RI91Y567E"	2	"lib/images/pbp16/problem/pbp16_1-1.jpg"	"left"	"pbp16_1-1.jpg"	535	345	237	241	13472	1	"left"	237	241	"pbp16"	"the square was proceeded by a circle"	"the circle was proceeded by a square"
45904	"active-sort"	0	3	177147	"p104932"	"active"	"pbp16"	"A3K43RI91Y567E"	3	"lib/images/pbp16/problem/pbp16_1-4.jpg"	"right"	"pbp16_1-4.jpg"	645	235	229	334	15683	0	"left"	942	241	"pbp16"	"the square was proceeded by a circle"	"the circle was proceeded by a square"
45904	"active-sort"	0	3	177147	"p104932"	"active"	"pbp16"	"A3K43RI91Y567E"	4	"lib/images/pbp16/problem/pbp16_1-4.jpg"	"right"	"pbp16_1-4.jpg"	645	235	942	241	17095	1	"right"	942	241	"pbp16"	"the square was proceeded by a circle"	"the circle was proceeded by a square"
45904	"active-sort"	0	3	177147	"p104932"	"active"	"pbp16"	"A3K43RI91Y567E"	5	"lib/images/pbp16/problem/pbp16_2-3.jpg"	"right"	"pbp16_2-3.jpg"	755	235	942	348	25344	1	"right"	942	348	"pbp16"	"the square was proceeded by a circle"	"the circle was proceeded by a square"
45904	"active-sort"	0	3	177148	"p104932"	"active"	"pbp16"	"A3K43RI91Y567E"	6	"lib/images/pbp16/problem/pbp16_1-2.jpg"	"left"	"pbp16_1-2.jpg"	755	345	237	348	27982	1	"left"	237	348	"pbp16"	"the square was proceeded by a circle"	"the circle was proceeded by a square"
45904	"active-sort"	0	3	177148	"p104932"	"active"	"pbp16"	"A3K43RI91Y567E"	7	"lib/images/pbp16/problem/pbp16_3-4.jpg"	"right"	"pbp16_3-4.jpg"	645	345	942	455	30919	1	"right"	942	455	"pbp16"	"the square was proceeded by a circle"	"the circle was proceeded by a square"
45904	"active-sort"	0	3	177148	"p104932"	"active"	"pbp16"	"A3K43RI91Y567E"	8	"lib/images/pbp16/problem/pbp16_3-2.jpg"	"left"	"pbp16_3-2.jpg"	755	455	237	455	34203	1	"left"	237	455	"pbp16"	"the square was proceeded by a circle"	"the circle was proceeded by a square"
45904	"active-sort"	0	3	177148	"p104932"	"active"	"pbp16"	"A3K43RI91Y567E"	9	"lib/images/pbp16/problem/pbp16_2-2.jpg"	"left"	"pbp16_2-2.jpg"	645	455	125	455	36731	1	"left"	125	455	"pbp16"	"the square was proceeded by a circle"	"the circle was proceeded by a square"
45904	"active-sort"	0	3	177148	"p104932"	"active"	"pbp16"	"A3K43RI91Y567E"	10	"lib/images/pbp16/problem/pbp16_3-3.jpg"	"right"	"pbp16_3-3.jpg"	535	455	1054	455	38360	1	"right"	1054	455	"pbp16"	"the square was proceeded by a circle"	"the circle was proceeded by a square"
45904	"active-sort"	0	3	177148	"p104932"	"active"	"pbp16"	"A3K43RI91Y567E"	11	"lib/images/pbp16/problem/pbp16_1-3.jpg"	"right"	"pbp16_1-3.jpg"	425	455	1054	348	39627	1	"right"	1054	348	"pbp16"	"the square was proceeded by a circle"	"the circle was proceeded by a square"
45904	"active-sort"	0	3	177148	"p104932"	"active"	"pbp16"	"A3K43RI91Y567E"	12	"lib/images/pbp16/problem/pbp16_2-4.jpg"	"right"	"pbp16_2-4.jpg"	425	345	1054	241	40867	1	"right"	1054	241	"pbp16"	"the square was proceeded by a circle"	"the circle was proceeded by a square"
45904	"active-sort"	0	3	177148	"p104932"	"active"	"pbp16"	"A3K43RI91Y567E"	13	"lib/images/pbp16/problem/pbp16_2-1.jpg"	"left"	"pbp16_2-1.jpg"	535	235	125	241	41966	1	"left"	125	241	"pbp16"	"the square was proceeded by a circle"	"the circle was proceeded by a square"
45904	"active-sort"	0	3	177148	"p104932"	"active"	"pbp16"	"A3K43RI91Y567E"	14	"lib/images/pbp16/problem/pbp16_3-1.jpg"	"left"	"pbp16_3-1.jpg"	425	235	125	348	42898	1	"left"	125	348	"pbp16"	"the square was proceeded by a circle"	"the circle was proceeded by a square"
28706	"test-sort"	0	6	227563	"p104932"	"active"	"pbp16"	"A3K43RI91Y567E"	1	"lib/images/pbp16/test/pbp16_5-3.jpg"	"right"	"pbp16_5-3.jpg"	590	306	988.5	556	9594	1	"right"	988.5	556	"pbp16"	"the square was proceeded by a circle"	"the circle was proceeded by a square"
28706	"test-sort"	0	6	227563	"p104932"	"active"	"pbp16"	"A3K43RI91Y567E"	2	"lib/images/pbp16/test/pbp16_5-1.jpg"	"left"	"pbp16_5-1.jpg"	590	306	191.5	556	12766	1	"left"	191.5	556	"pbp16"	"the square was proceeded by a circle"	"the circle was proceeded by a square"
28706	"test-sort"	0	6	227563	"p104932"	"active"	"pbp16"	"A3K43RI91Y567E"	3	"lib/images/pbp16/test/pbp16_4-2.jpg"	"left"	"pbp16_4-2.jpg"	590	306	191.5	556	15235	1	"left"	191.5	556	"pbp16"	"the square was proceeded by a circle"	"the circle was proceeded by a square"
28706	"test-sort"	0	6	227563	"p104932"	"active"	"pbp16"	"A3K43RI91Y567E"	4	"lib/images/pbp16/test/pbp16_4-4.jpg"	"right"	"pbp16_4-4.jpg"	590	306	988.5	556	18579	1	"right"	988.5	556	"pbp16"	"the square was proceeded by a circle"	"the circle was proceeded by a square"
28706	"test-sort"	0	6	227563	"p104932"	"active"	"pbp16"	"A3K43RI91Y567E"	5	"lib/images/pbp16/test/pbp16_4-3.jpg"	"right"	"pbp16_4-3.jpg"	590	306	988.5	556	20071	1	"right"	988.5	556	"pbp16"	"the square was proceeded by a circle"	"the circle was proceeded by a square"
28706	"test-sort"	0	6	227563	"p104932"	"active"	"pbp16"	"A3K43RI91Y567E"	6	"lib/images/pbp16/test/pbp16_5-4.jpg"	"right"	"pbp16_5-4.jpg"	590	306	988.5	556	21536	1	"right"	988.5	556	"pbp16"	"the square was proceeded by a circle"	"the circle was proceeded by a square"
28706	"test-sort"	0	6	227563	"p104932"	"active"	"pbp16"	"A3K43RI91Y567E"	7	"lib/images/pbp16/test/pbp16_5-2.jpg"	"left"	"pbp16_5-2.jpg"	590	306	191.5	556	23221	1	"left"	191.5	556	"pbp16"	"the square was proceeded by a circle"	"the circle was proceeded by a square"
28706	"test-sort"	0	6	227563	"p104932"	"active"	"pbp16"	"A3K43RI91Y567E"	8	"lib/images/pbp16/test/pbp16_4-1.jpg"	"left"	"pbp16_4-1.jpg"	590	306	191.5	556	24705	1	"left"	191.5	556	"pbp16"	"the square was proceeded by a circle"	"the circle was proceeded by a square"
33946	"survey-text-leftRight"	0	7	263522	"p104932"	"active"	"pbp16"	"A3K43RI91Y567E"	NA	""	""	""	NA	NA	NA	NA	NA	NA	""	NA	NA	""	"the square was proceeded by a circle"	"the circle was proceeded by a square"
43171	"active-sort"	0	1	61552	"p109296"	"active"	"pbp11b"	"AZE084MMZVEYT"	1	"lib/images/pbp34/problem/pbp34_3-1.jpg"	"left"	"pbp34_3-1.jpg"	425.000030517578	344.571441650391	124.500007629395	240.071441650391	10153	1	"left"	124.500007629395	240.071441650391	"pbp34"	"seemed more stable and orderly"	"seemed more chaotic"
43171	"active-sort"	0	1	61552	"p109296"	"active"	"pbp11b"	"AZE084MMZVEYT"	2	"lib/images/pbp34/problem/pbp34_2-1.jpg"	"left"	"pbp34_2-1.jpg"	425.000030517578	234.571441650391	235.642868041992	240.071441650391	18091	1	"left"	235.642868041992	240.071441650391	"pbp34"	"seemed more stable and orderly"	"seemed more chaotic"
43171	"active-sort"	0	1	61552	"p109296"	"active"	"pbp11b"	"AZE084MMZVEYT"	3	"lib/images/pbp34/problem/pbp34_1-3.jpg"	"right"	"pbp34_1-3.jpg"	535	234.571441650391	941.500061035156	240.071441650391	22724	1	"right"	941.500061035156	240.071441650391	"pbp34"	"seemed more stable and orderly"	"seemed more chaotic"
43171	"active-sort"	0	1	61552	"p109296"	"active"	"pbp11b"	"AZE084MMZVEYT"	4	"lib/images/pbp34/problem/pbp34_2-2.jpg"	"left"	"pbp34_2-2.jpg"	645	234.571441650391	124.500007629395	346.214294433594	24898	1	"left"	124.500007629395	346.214294433594	"pbp34"	"seemed more stable and orderly"	"seemed more chaotic"
43171	"active-sort"	0	1	61552	"p109296"	"active"	"pbp11b"	"AZE084MMZVEYT"	5	"lib/images/pbp34/problem/pbp34_1-4.jpg"	"right"	"pbp34_1-4.jpg"	755.000061035156	234.571441650391	1052.64294433594	240.071441650391	26176	1	"right"	1052.64294433594	240.071441650391	"pbp34"	"seemed more stable and orderly"	"seemed more chaotic"
43171	"active-sort"	0	1	61552	"p109296"	"active"	"pbp11b"	"AZE084MMZVEYT"	6	"lib/images/pbp34/problem/pbp34_2-4.jpg"	"right"	"pbp34_2-4.jpg"	755.000061035156	344.571441650391	941.500061035156	346.205383300781	27683	1	"right"	941.500061035156	346.205383300781	"pbp34"	"seemed more stable and orderly"	"seemed more chaotic"
43171	"active-sort"	0	1	61552	"p109296"	"active"	"pbp11b"	"AZE084MMZVEYT"	7	"lib/images/pbp34/problem/pbp34_3-2.jpg"	"left"	"pbp34_3-2.jpg"	645	344.571441650391	1040	364.571441650391	30282	0	"right"	235.642868041992	346.205383300781	"pbp34"	"seemed more stable and orderly"	"seemed more chaotic"
43171	"active-sort"	0	1	61552	"p109296"	"active"	"pbp11b"	"AZE084MMZVEYT"	8	"lib/images/pbp34/problem/pbp34_3-2.jpg"	"left"	"pbp34_3-2.jpg"	645	344.571441650391	235.642868041992	346.205383300781	31527	1	"left"	235.642868041992	346.205383300781	"pbp34"	"seemed more stable and orderly"	"seemed more chaotic"
43171	"active-sort"	0	1	61552	"p109296"	"active"	"pbp11b"	"AZE084MMZVEYT"	9	"lib/images/pbp34/problem/pbp34_1-1.jpg"	"left"	"pbp34_1-1.jpg"	535	344.571441650391	124.500007629395	452.357177734375	35102	1	"left"	124.500007629395	452.357177734375	"pbp34"	"seemed more stable and orderly"	"seemed more chaotic"
43171	"active-sort"	0	1	61552	"p109296"	"active"	"pbp11b"	"AZE084MMZVEYT"	10	"lib/images/pbp34/problem/pbp34_1-2.jpg"	"left"	"pbp34_1-2.jpg"	425.000030517578	454.571441650391	235.642868041992	452.366088867188	36509	1	"left"	235.642868041992	452.366088867188	"pbp34"	"seemed more stable and orderly"	"seemed more chaotic"
43171	"active-sort"	0	1	61552	"p109296"	"active"	"pbp11b"	"AZE084MMZVEYT"	11	"lib/images/pbp34/problem/pbp34_3-4.jpg"	"right"	"pbp34_3-4.jpg"	535	454.571441650391	941.500061035156	452.366088867188	37669	1	"right"	941.500061035156	452.366088867188	"pbp34"	"seemed more stable and orderly"	"seemed more chaotic"
43171	"active-sort"	0	1	61552	"p109296"	"active"	"pbp11b"	"AZE084MMZVEYT"	12	"lib/images/pbp34/problem/pbp34_3-3.jpg"	"right"	"pbp34_3-3.jpg"	645	454.571441650391	1052.64294433594	346.214294433594	39067	1	"right"	1052.64294433594	346.214294433594	"pbp34"	"seemed more stable and orderly"	"seemed more chaotic"
43171	"active-sort"	0	1	61552	"p109296"	"active"	"pbp11b"	"AZE084MMZVEYT"	13	"lib/images/pbp34/problem/pbp34_2-3.jpg"	"right"	"pbp34_2-3.jpg"	755.000061035156	454.571441650391	1052.64294433594	452.366088867188	40174	1	"right"	1052.64294433594	452.366088867188	"pbp34"	"seemed more stable and orderly"	"seemed more chaotic"
40731	"active-sort"	0	3	111227	"p109296"	"active"	"pbp11b"	"AZE084MMZVEYT"	1	"lib/images/pbp11b/problem/pbp11b_1-1.jpg"	"left"	"pbp11b_1-1.jpg"	425.000030517578	234.571441650391	124.500007629395	240.071441650391	7192	1	"left"	124.500007629395	240.071441650391	"pbp11b"	"seemed more stable and orderly"	"seemed more chaotic"
40731	"active-sort"	0	3	111227	"p109296"	"active"	"pbp11b"	"AZE084MMZVEYT"	2	"lib/images/pbp11b/problem/pbp11b_1-3.jpg"	"right"	"pbp11b_1-3.jpg"	535	234.571441650391	941.500061035156	240.071441650391	8946	1	"right"	941.500061035156	240.071441650391	"pbp11b"	"seemed more stable and orderly"	"seemed more chaotic"
40731	"active-sort"	0	3	111227	"p109296"	"active"	"pbp11b"	"AZE084MMZVEYT"	3	"lib/images/pbp11b/problem/pbp11b_2-1.jpg"	"left"	"pbp11b_2-1.jpg"	755.000061035156	234.571441650391	235.642868041992	240.071441650391	12637	1	"left"	235.642868041992	240.071441650391	"pbp11b"	"seemed more stable and orderly"	"seemed more chaotic"
40731	"active-sort"	0	3	111227	"p109296"	"active"	"pbp11b"	"AZE084MMZVEYT"	4	"lib/images/pbp11b/problem/pbp11b_2-4.jpg"	"right"	"pbp11b_2-4.jpg"	645	234.571441650391	137	344.571441650391	14681	0	"left"	1052.64294433594	240.071441650391	"pbp11b"	"seemed more stable and orderly"	"seemed more chaotic"
40731	"active-sort"	0	3	111227	"p109296"	"active"	"pbp11b"	"AZE084MMZVEYT"	5	"lib/images/pbp11b/problem/pbp11b_2-4.jpg"	"right"	"pbp11b_2-4.jpg"	645	234.571441650391	1052.64294433594	240.071441650391	15935	1	"right"	1052.64294433594	240.071441650391	"pbp11b"	"seemed more stable and orderly"	"seemed more chaotic"
40731	"active-sort"	0	3	111227	"p109296"	"active"	"pbp11b"	"AZE084MMZVEYT"	6	"lib/images/pbp11b/problem/pbp11b_3-4.jpg"	"right"	"pbp11b_3-4.jpg"	755.000061035156	344.571441650391	115.000007629395	366.571441650391	17724	0	"left"	941.500061035156	346.205383300781	"pbp11b"	"seemed more stable and orderly"	"seemed more chaotic"
40731	"active-sort"	0	3	111227	"p109296"	"active"	"pbp11b"	"AZE084MMZVEYT"	7	"lib/images/pbp11b/problem/pbp11b_3-4.jpg"	"right"	"pbp11b_3-4.jpg"	755.000061035156	344.571441650391	941.500061035156	346.205383300781	18766	1	"right"	941.500061035156	346.205383300781	"pbp11b"	"seemed more stable and orderly"	"seemed more chaotic"
40731	"active-sort"	0	3	111227	"p109296"	"active"	"pbp11b"	"AZE084MMZVEYT"	8	"lib/images/pbp11b/problem/pbp11b_1-2.jpg"	"left"	"pbp11b_1-2.jpg"	645	344.571441650391	1089	354.571441650391	19889	0	"right"	124.500007629395	346.205383300781	"pbp11b"	"seemed more stable and orderly"	"seemed more chaotic"
40731	"active-sort"	0	3	111227	"p109296"	"active"	"pbp11b"	"AZE084MMZVEYT"	9	"lib/images/pbp11b/problem/pbp11b_1-2.jpg"	"left"	"pbp11b_1-2.jpg"	645	344.571441650391	124.500007629395	346.205383300781	21209	1	"left"	124.500007629395	346.205383300781	"pbp11b"	"seemed more stable and orderly"	"seemed more chaotic"
40731	"active-sort"	0	3	111227	"p109296"	"active"	"pbp11b"	"AZE084MMZVEYT"	10	"lib/images/pbp11b/problem/pbp11b_2-2.jpg"	"left"	"pbp11b_2-2.jpg"	425.000030517578	344.571441650391	235.651794433594	346.205383300781	22301	1	"left"	235.651794433594	346.205383300781	"pbp11b"	"seemed more stable and orderly"	"seemed more chaotic"
40731	"active-sort"	0	3	111227	"p109296"	"active"	"pbp11b"	"AZE084MMZVEYT"	11	"lib/images/pbp11b/problem/pbp11b_3-3.jpg"	"right"	"pbp11b_3-3.jpg"	535	344.571441650391	1052.64294433594	346.205383300781	23744	1	"right"	1052.64294433594	346.205383300781	"pbp11b"	"seemed more stable and orderly"	"seemed more chaotic"
40731	"active-sort"	0	3	111227	"p109296"	"active"	"pbp11b"	"AZE084MMZVEYT"	12	"lib/images/pbp11b/problem/pbp11b_3-2.jpg"	"left"	"pbp11b_3-2.jpg"	755.000061035156	454.571441650391	914.000061035156	458.571441650391	26813	0	"right"	124.500007629395	452.366088867188	"pbp11b"	"seemed more stable and orderly"	"seemed more chaotic"
40731	"active-sort"	0	3	111227	"p109296"	"active"	"pbp11b"	"AZE084MMZVEYT"	13	"lib/images/pbp11b/problem/pbp11b_3-2.jpg"	"left"	"pbp11b_3-2.jpg"	755.000061035156	454.571441650391	124.500007629395	452.366088867188	27962	1	"left"	124.500007629395	452.366088867188	"pbp11b"	"seemed more stable and orderly"	"seemed more chaotic"
40731	"active-sort"	0	3	111227	"p109296"	"active"	"pbp11b"	"AZE084MMZVEYT"	14	"lib/images/pbp11b/problem/pbp11b_2-3.jpg"	"right"	"pbp11b_2-3.jpg"	645	454.571441650391	250.000015258789	449.571441650391	28808	0	"left"	941.500061035156	452.366088867188	"pbp11b"	"seemed more stable and orderly"	"seemed more chaotic"
40731	"active-sort"	0	3	111227	"p109296"	"active"	"pbp11b"	"AZE084MMZVEYT"	15	"lib/images/pbp11b/problem/pbp11b_2-3.jpg"	"right"	"pbp11b_2-3.jpg"	645	454.571441650391	941.500061035156	452.366088867188	31336	1	"right"	941.500061035156	452.366088867188	"pbp11b"	"seemed more stable and orderly"	"seemed more chaotic"
40731	"active-sort"	0	3	111227	"p109296"	"active"	"pbp11b"	"AZE084MMZVEYT"	16	"lib/images/pbp11b/problem/pbp11b_1-4.jpg"	"right"	"pbp11b_1-4.jpg"	535	454.571441650391	241.000015258789	440.571441650391	33112	0	"left"	1052.64294433594	452.366088867188	"pbp11b"	"seemed more stable and orderly"	"seemed more chaotic"
40731	"active-sort"	0	3	111227	"p109296"	"active"	"pbp11b"	"AZE084MMZVEYT"	17	"lib/images/pbp11b/problem/pbp11b_1-4.jpg"	"right"	"pbp11b_1-4.jpg"	535	454.571441650391	1052.64294433594	452.366088867188	35624	1	"right"	1052.64294433594	452.366088867188	"pbp11b"	"seemed more stable and orderly"	"seemed more chaotic"
40731	"active-sort"	0	3	111227	"p109296"	"active"	"pbp11b"	"AZE084MMZVEYT"	18	"lib/images/pbp11b/problem/pbp11b_3-1.jpg"	"left"	"pbp11b_3-1.jpg"	425.000030517578	454.571441650391	235.651794433594	452.366088867188	37720	1	"left"	235.651794433594	452.366088867188	"pbp11b"	"seemed more stable and orderly"	"seemed more chaotic"
19695	"test-sort"	0	6	143157	"p109296"	"active"	"pbp11b"	"AZE084MMZVEYT"	1	"lib/images/pbp11b/test/pbp11b_5-2.jpg"	"left"	"pbp11b_5-2.jpg"	590	306.714294433594	191.428573608398	556.214294433594	4799	1	"left"	191.428573608398	556.214294433594	"pbp11b"	"seemed more stable and orderly"	"seemed more chaotic"
19695	"test-sort"	0	6	143157	"p109296"	"active"	"pbp11b"	"AZE084MMZVEYT"	2	"lib/images/pbp11b/test/pbp11b_5-4.jpg"	"right"	"pbp11b_5-4.jpg"	590	306.714294433594	191.428573608398	556.214294433594	6815	0	"left"	191.428573608398	556.214294433594	"pbp11b"	"seemed more stable and orderly"	"seemed more chaotic"
19695	"test-sort"	0	6	143157	"p109296"	"active"	"pbp11b"	"AZE084MMZVEYT"	3	"lib/images/pbp11b/test/pbp11b_4-1.jpg"	"left"	"pbp11b_4-1.jpg"	590	306.714294433594	191.428573608398	556.214294433594	8189	1	"left"	191.428573608398	556.214294433594	"pbp11b"	"seemed more stable and orderly"	"seemed more chaotic"
19695	"test-sort"	0	6	143157	"p109296"	"active"	"pbp11b"	"AZE084MMZVEYT"	4	"lib/images/pbp11b/test/pbp11b_4-2.jpg"	"left"	"pbp11b_4-2.jpg"	590	306.714294433594	191.428573608398	556.214294433594	9515	1	"left"	191.428573608398	556.214294433594	"pbp11b"	"seemed more stable and orderly"	"seemed more chaotic"
19695	"test-sort"	0	6	143157	"p109296"	"active"	"pbp11b"	"AZE084MMZVEYT"	5	"lib/images/pbp11b/test/pbp11b_4-4.jpg"	"right"	"pbp11b_4-4.jpg"	590	306.714294433594	988.419677734375	556.214294433594	11212	1	"right"	988.419677734375	556.214294433594	"pbp11b"	"seemed more stable and orderly"	"seemed more chaotic"
19695	"test-sort"	0	6	143157	"p109296"	"active"	"pbp11b"	"AZE084MMZVEYT"	6	"lib/images/pbp11b/test/pbp11b_5-1.jpg"	"left"	"pbp11b_5-1.jpg"	590	306.714294433594	191.428573608398	556.214294433594	12519	1	"left"	191.428573608398	556.214294433594	"pbp11b"	"seemed more stable and orderly"	"seemed more chaotic"
19695	"test-sort"	0	6	143157	"p109296"	"active"	"pbp11b"	"AZE084MMZVEYT"	7	"lib/images/pbp11b/test/pbp11b_4-3.jpg"	"right"	"pbp11b_4-3.jpg"	590	306.714294433594	988.419677734375	556.214294433594	14356	1	"right"	988.419677734375	556.214294433594	"pbp11b"	"seemed more stable and orderly"	"seemed more chaotic"
19695	"test-sort"	0	6	143157	"p109296"	"active"	"pbp11b"	"AZE084MMZVEYT"	8	"lib/images/pbp11b/test/pbp11b_5-3.jpg"	"right"	"pbp11b_5-3.jpg"	590	306.714294433594	191.428573608398	556.214294433594	15691	0	"left"	191.428573608398	556.214294433594	"pbp11b"	"seemed more stable and orderly"	"seemed more chaotic"
22944	"survey-text-leftRight"	0	7	168128	"p109296"	"active"	"pbp11b"	"AZE084MMZVEYT"	NA	""	""	""	NA	NA	NA	NA	NA	NA	""	NA	NA	""	"seemed more stable and orderly"	"seemed more chaotic"
42265	"passive-sort"	0	1	128181	"p111472"	"passive"	"pbp28"	"A39SAU9HHC6K32"	1	"lib/images/pbp34/problem/pbp34_2-2.jpg"	"left"	"pbp34_2-2.jpg"	535	455	237	241	17375	1	"left"	237	241	"pbp34"	"These will roll."	"These will not roll."
42265	"passive-sort"	0	1	128181	"p111472"	"passive"	"pbp28"	"A39SAU9HHC6K32"	2	"lib/images/pbp34/problem/pbp34_1-2.jpg"	"left"	"pbp34_1-2.jpg"	535	235	237	348	20188	1	"left"	237	348	"pbp34"	"These will roll."	"These will not roll."
42265	"passive-sort"	0	1	128181	"p111472"	"passive"	"pbp28"	"A39SAU9HHC6K32"	3	"lib/images/pbp34/problem/pbp34_2-4.jpg"	"right"	"pbp34_2-4.jpg"	535	345	942	241	21884	1	"right"	942	241	"pbp34"	"These will roll."	"These will not roll."
42265	"passive-sort"	0	1	128181	"p111472"	"passive"	"pbp28"	"A39SAU9HHC6K32"	4	"lib/images/pbp34/problem/pbp34_2-1.jpg"	"left"	"pbp34_2-1.jpg"	645	235	237	455	25707	1	"left"	237	455	"pbp34"	"These will roll."	"These will not roll."
42265	"passive-sort"	0	1	128181	"p111472"	"passive"	"pbp28"	"A39SAU9HHC6K32"	5	"lib/images/pbp34/problem/pbp34_3-2.jpg"	"left"	"pbp34_3-2.jpg"	645	455	125	455	28453	1	"left"	125	455	"pbp34"	"These will roll."	"These will not roll."
42265	"passive-sort"	0	1	128181	"p111472"	"passive"	"pbp28"	"A39SAU9HHC6K32"	6	"lib/images/pbp34/problem/pbp34_1-3.jpg"	"right"	"pbp34_1-3.jpg"	425	455	942	348	30945	1	"right"	942	348	"pbp34"	"These will roll."	"These will not roll."
42265	"passive-sort"	0	1	128181	"p111472"	"passive"	"pbp28"	"A39SAU9HHC6K32"	7	"lib/images/pbp34/problem/pbp34_3-1.jpg"	"left"	"pbp34_3-1.jpg"	755	345	125	348	32883	1	"left"	125	348	"pbp34"	"These will roll."	"These will not roll."
42265	"passive-sort"	0	1	128181	"p111472"	"passive"	"pbp28"	"A39SAU9HHC6K32"	8	"lib/images/pbp34/problem/pbp34_1-1.jpg"	"left"	"pbp34_1-1.jpg"	645	345	125	241	34184	1	"left"	125	241	"pbp34"	"These will roll."	"These will not roll."
42265	"passive-sort"	0	1	128181	"p111472"	"passive"	"pbp28"	"A39SAU9HHC6K32"	9	"lib/images/pbp34/problem/pbp34_3-3.jpg"	"right"	"pbp34_3-3.jpg"	425	345	1054	455	35614	1	"right"	1054	455	"pbp34"	"These will roll."	"These will not roll."
42265	"passive-sort"	0	1	128181	"p111472"	"passive"	"pbp28"	"A39SAU9HHC6K32"	10	"lib/images/pbp34/problem/pbp34_2-3.jpg"	"right"	"pbp34_2-3.jpg"	425	235	1054	241	37480	1	"right"	1054	241	"pbp34"	"These will roll."	"These will not roll."
42265	"passive-sort"	0	1	128181	"p111472"	"passive"	"pbp28"	"A39SAU9HHC6K32"	11	"lib/images/pbp34/problem/pbp34_3-4.jpg"	"right"	"pbp34_3-4.jpg"	755	455	1054	348	38437	1	"right"	1054	348	"pbp34"	"These will roll."	"These will not roll."
42265	"passive-sort"	0	1	128181	"p111472"	"passive"	"pbp28"	"A39SAU9HHC6K32"	12	"lib/images/pbp34/problem/pbp34_1-4.jpg"	"right"	"pbp34_1-4.jpg"	755	235	942	455	39261	1	"right"	942	455	"pbp34"	"These will roll."	"These will not roll."
59469	"passive-sort"	0	3	199084	"p111472"	"passive"	"pbp28"	"A39SAU9HHC6K32"	1	"lib/images/pbp28/problem/pbp28_2-4.jpg"	"right"	"pbp28_2-4.jpg"	755	345	225	240	10832	0	"left"	942	241	"pbp28"	"These will roll."	"These will not roll."
59469	"passive-sort"	0	3	199084	"p111472"	"passive"	"pbp28"	"A39SAU9HHC6K32"	2	"lib/images/pbp28/problem/pbp28_2-4.jpg"	"right"	"pbp28_2-4.jpg"	755	345	942	241	27707	1	"right"	942	241	"pbp28"	"These will roll."	"These will not roll."
59469	"passive-sort"	0	3	199084	"p111472"	"passive"	"pbp28"	"A39SAU9HHC6K32"	3	"lib/images/pbp28/problem/pbp28_3-2.jpg"	"left"	"pbp28_3-2.jpg"	755	235	237	241	29180	1	"left"	237	241	"pbp28"	"These will roll."	"These will not roll."
59469	"passive-sort"	0	3	199084	"p111472"	"passive"	"pbp28"	"A39SAU9HHC6K32"	4	"lib/images/pbp28/problem/pbp28_2-2.jpg"	"left"	"pbp28_2-2.jpg"	425	455	930	342	31638	0	"right"	237	348	"pbp28"	"These will roll."	"These will not roll."
59469	"passive-sort"	0	3	199084	"p111472"	"passive"	"pbp28"	"A39SAU9HHC6K32"	5	"lib/images/pbp28/problem/pbp28_2-2.jpg"	"left"	"pbp28_2-2.jpg"	425	455	237	348	34078	1	"left"	237	348	"pbp28"	"These will roll."	"These will not roll."
59469	"passive-sort"	0	3	199084	"p111472"	"passive"	"pbp28"	"A39SAU9HHC6K32"	6	"lib/images/pbp28/problem/pbp28_2-3.jpg"	"right"	"pbp28_2-3.jpg"	645	345	942	348	38220	1	"right"	942	348	"pbp28"	"These will roll."	"These will not roll."
59469	"passive-sort"	0	3	199084	"p111472"	"passive"	"pbp28"	"A39SAU9HHC6K32"	7	"lib/images/pbp28/problem/pbp28_1-1.jpg"	"left"	"pbp28_1-1.jpg"	645	235	237	455	41054	1	"left"	237	455	"pbp28"	"These will roll."	"These will not roll."
59469	"passive-sort"	0	3	199084	"p111472"	"passive"	"pbp28"	"A39SAU9HHC6K32"	8	"lib/images/pbp28/problem/pbp28_3-4.jpg"	"right"	"pbp28_3-4.jpg"	535	235	942	455	43113	1	"right"	942	455	"pbp28"	"These will roll."	"These will not roll."
59469	"passive-sort"	0	3	199084	"p111472"	"passive"	"pbp28"	"A39SAU9HHC6K32"	9	"lib/images/pbp28/problem/pbp28_1-3.jpg"	"right"	"pbp28_1-3.jpg"	755	455	1054	455	46016	1	"right"	1054	455	"pbp28"	"These will roll."	"These will not roll."
59469	"passive-sort"	0	3	199084	"p111472"	"passive"	"pbp28"	"A39SAU9HHC6K32"	10	"lib/images/pbp28/problem/pbp28_3-1.jpg"	"left"	"pbp28_3-1.jpg"	645	455	125	455	47715	1	"left"	125	455	"pbp28"	"These will roll."	"These will not roll."
59469	"passive-sort"	0	3	199084	"p111472"	"passive"	"pbp28"	"A39SAU9HHC6K32"	11	"lib/images/pbp28/problem/pbp28_2-1.jpg"	"left"	"pbp28_2-1.jpg"	425	235	125	348	49734	1	"left"	125	348	"pbp28"	"These will roll."	"These will not roll."
59469	"passive-sort"	0	3	199084	"p111472"	"passive"	"pbp28"	"A39SAU9HHC6K32"	12	"lib/images/pbp28/problem/pbp28_1-4.jpg"	"right"	"pbp28_1-4.jpg"	535	345	127	259	50917	0	"left"	1054	348	"pbp28"	"These will roll."	"These will not roll."
59469	"passive-sort"	0	3	199084	"p111472"	"passive"	"pbp28"	"A39SAU9HHC6K32"	13	"lib/images/pbp28/problem/pbp28_1-4.jpg"	"right"	"pbp28_1-4.jpg"	535	345	1054	348	53225	1	"right"	1054	348	"pbp28"	"These will roll."	"These will not roll."
59469	"passive-sort"	0	3	199084	"p111472"	"passive"	"pbp28"	"A39SAU9HHC6K32"	14	"lib/images/pbp28/problem/pbp28_3-3.jpg"	"right"	"pbp28_3-3.jpg"	535	455	1054	241	55405	1	"right"	1054	241	"pbp28"	"These will roll."	"These will not roll."
59469	"passive-sort"	0	3	199084	"p111472"	"passive"	"pbp28"	"A39SAU9HHC6K32"	15	"lib/images/pbp28/problem/pbp28_1-2.jpg"	"left"	"pbp28_1-2.jpg"	425	345	125	241	56467	1	"left"	125	241	"pbp28"	"These will roll."	"These will not roll."
22355	"test-sort"	0	6	240619	"p111472"	"passive"	"pbp28"	"A39SAU9HHC6K32"	1	"lib/images/pbp28/test/pbp28_5-2.jpg"	"left"	"pbp28_5-2.jpg"	590	306	191.5	556	3313	1	"left"	191.5	556	"pbp28"	"These will roll."	"These will not roll."
22355	"test-sort"	0	6	240620	"p111472"	"passive"	"pbp28"	"A39SAU9HHC6K32"	2	"lib/images/pbp28/test/pbp28_4-2.jpg"	"left"	"pbp28_4-2.jpg"	590	306	191.5	556	5157	1	"left"	191.5	556	"pbp28"	"These will roll."	"These will not roll."
22355	"test-sort"	0	6	240620	"p111472"	"passive"	"pbp28"	"A39SAU9HHC6K32"	3	"lib/images/pbp28/test/pbp28_5-3.jpg"	"right"	"pbp28_5-3.jpg"	590	306	988.5	556	6937	1	"right"	988.5	556	"pbp28"	"These will roll."	"These will not roll."
22355	"test-sort"	0	6	240620	"p111472"	"passive"	"pbp28"	"A39SAU9HHC6K32"	4	"lib/images/pbp28/test/pbp28_4-1.jpg"	"left"	"pbp28_4-1.jpg"	590	306	191.5	556	10996	1	"left"	191.5	556	"pbp28"	"These will roll."	"These will not roll."
22355	"test-sort"	0	6	240620	"p111472"	"passive"	"pbp28"	"A39SAU9HHC6K32"	5	"lib/images/pbp28/test/pbp28_5-4.jpg"	"right"	"pbp28_5-4.jpg"	590	306	988.5	556	12762	1	"right"	988.5	556	"pbp28"	"These will roll."	"These will not roll."
22355	"test-sort"	0	6	240620	"p111472"	"passive"	"pbp28"	"A39SAU9HHC6K32"	6	"lib/images/pbp28/test/pbp28_5-1.jpg"	"left"	"pbp28_5-1.jpg"	590	306	191.5	556	14428	1	"left"	191.5	556	"pbp28"	"These will roll."	"These will not roll."
22355	"test-sort"	0	6	240620	"p111472"	"passive"	"pbp28"	"A39SAU9HHC6K32"	7	"lib/images/pbp28/test/pbp28_4-3.jpg"	"right"	"pbp28_4-3.jpg"	590	306	988.5	556	16344	1	"right"	988.5	556	"pbp28"	"These will roll."	"These will not roll."
22355	"test-sort"	0	6	240620	"p111472"	"passive"	"pbp28"	"A39SAU9HHC6K32"	8	"lib/images/pbp28/test/pbp28_4-4.jpg"	"right"	"pbp28_4-4.jpg"	590	306	988.5	556	18353	1	"right"	988.5	556	"pbp28"	"These will roll."	"These will not roll."
18922	"survey-text-leftRight"	0	7	261552	"p111472"	"passive"	"pbp28"	"A39SAU9HHC6K32"	NA	""	""	""	NA	NA	NA	NA	NA	NA	""	NA	NA	""	"These will roll."	"These will not roll."
62039	"passive-sort"	0	1	190923	"p116140"	"passive"	"pbp19"	"A306GWTM2KVPJ0"	1	"lib/images/pbp34/problem/pbp34_1-3.jpg"	"right"	"pbp34_1-3.jpg"	535	345	135	253	19127	0	"left"	942	241	"pbp34"	"Object will fall"	"Object will stay on ground"
62039	"passive-sort"	0	1	190923	"p116140"	"passive"	"pbp19"	"A306GWTM2KVPJ0"	2	"lib/images/pbp34/problem/pbp34_1-3.jpg"	"right"	"pbp34_1-3.jpg"	535	345	942	241	21192	1	"right"	942	241	"pbp34"	"Object will fall"	"Object will stay on ground"
62039	"passive-sort"	0	1	190924	"p116140"	"passive"	"pbp19"	"A306GWTM2KVPJ0"	3	"lib/images/pbp34/problem/pbp34_3-2.jpg"	"left"	"pbp34_3-2.jpg"	645	235	125	241	30509	1	"left"	125	241	"pbp34"	"Object will fall"	"Object will stay on ground"
62039	"passive-sort"	0	1	190924	"p116140"	"passive"	"pbp19"	"A306GWTM2KVPJ0"	4	"lib/images/pbp34/problem/pbp34_3-1.jpg"	"left"	"pbp34_3-1.jpg"	755	345	237	241	33098	1	"left"	237	241	"pbp34"	"Object will fall"	"Object will stay on ground"
62039	"passive-sort"	0	1	190924	"p116140"	"passive"	"pbp19"	"A306GWTM2KVPJ0"	5	"lib/images/pbp34/problem/pbp34_2-1.jpg"	"left"	"pbp34_2-1.jpg"	755	455	1079	272	35142	0	"right"	237	348	"pbp34"	"Object will fall"	"Object will stay on ground"
62039	"passive-sort"	0	1	190924	"p116140"	"passive"	"pbp19"	"A306GWTM2KVPJ0"	6	"lib/images/pbp34/problem/pbp34_2-1.jpg"	"left"	"pbp34_2-1.jpg"	755	455	237	348	37201	1	"left"	237	348	"pbp34"	"Object will fall"	"Object will stay on ground"
62039	"passive-sort"	0	1	190924	"p116140"	"passive"	"pbp19"	"A306GWTM2KVPJ0"	7	"lib/images/pbp34/problem/pbp34_3-3.jpg"	"right"	"pbp34_3-3.jpg"	645	345	1054	241	44042	1	"right"	1054	241	"pbp34"	"Object will fall"	"Object will stay on ground"
62039	"passive-sort"	0	1	190924	"p116140"	"passive"	"pbp19"	"A306GWTM2KVPJ0"	8	"lib/images/pbp34/problem/pbp34_2-3.jpg"	"right"	"pbp34_2-3.jpg"	425	345	942	348	46346	1	"right"	942	348	"pbp34"	"Object will fall"	"Object will stay on ground"
62039	"passive-sort"	0	1	190925	"p116140"	"passive"	"pbp19"	"A306GWTM2KVPJ0"	9	"lib/images/pbp34/problem/pbp34_2-4.jpg"	"right"	"pbp34_2-4.jpg"	755	235	1054	348	48928	1	"right"	1054	348	"pbp34"	"Object will fall"	"Object will stay on ground"
62039	"passive-sort"	0	1	190925	"p116140"	"passive"	"pbp19"	"A306GWTM2KVPJ0"	10	"lib/images/pbp34/problem/pbp34_2-2.jpg"	"left"	"pbp34_2-2.jpg"	645	455	125	348	50772	1	"left"	125	348	"pbp34"	"Object will fall"	"Object will stay on ground"
62039	"passive-sort"	0	1	190925	"p116140"	"passive"	"pbp19"	"A306GWTM2KVPJ0"	11	"lib/images/pbp34/problem/pbp34_1-1.jpg"	"left"	"pbp34_1-1.jpg"	425	455	125	455	53016	1	"left"	125	455	"pbp34"	"Object will fall"	"Object will stay on ground"
62039	"passive-sort"	0	1	190925	"p116140"	"passive"	"pbp19"	"A306GWTM2KVPJ0"	12	"lib/images/pbp34/problem/pbp34_1-2.jpg"	"left"	"pbp34_1-2.jpg"	425	235	237	455	55196	1	"left"	237	455	"pbp34"	"Object will fall"	"Object will stay on ground"
62039	"passive-sort"	0	1	190926	"p116140"	"passive"	"pbp19"	"A306GWTM2KVPJ0"	13	"lib/images/pbp34/problem/pbp34_3-4.jpg"	"right"	"pbp34_3-4.jpg"	535	235	942	455	56662	1	"right"	942	455	"pbp34"	"Object will fall"	"Object will stay on ground"
62039	"passive-sort"	0	1	190926	"p116140"	"passive"	"pbp19"	"A306GWTM2KVPJ0"	14	"lib/images/pbp34/problem/pbp34_1-4.jpg"	"right"	"pbp34_1-4.jpg"	535	455	1054	455	59029	1	"right"	1054	455	"pbp34"	"Object will fall"	"Object will stay on ground"
63519	"passive-sort"	0	3	269110	"p116140"	"passive"	"pbp19"	"A306GWTM2KVPJ0"	1	"lib/images/pbp19/problem/pbp19_1-3.jpg"	"right"	"pbp19_1-3.jpg"	755	345	1054	241	8139	1	"right"	1054	241	"pbp19"	"Object will fall"	"Object will stay on ground"
63519	"passive-sort"	0	3	269111	"p116140"	"passive"	"pbp19"	"A306GWTM2KVPJ0"	2	"lib/images/pbp19/problem/pbp19_3-3.jpg"	"right"	"pbp19_3-3.jpg"	535	345	161	251	14805	0	"left"	1054	348	"pbp19"	"Object will fall"	"Object will stay on ground"
63519	"passive-sort"	0	3	269111	"p116140"	"passive"	"pbp19"	"A306GWTM2KVPJ0"	3	"lib/images/pbp19/problem/pbp19_3-3.jpg"	"right"	"pbp19_3-3.jpg"	535	345	1054	348	16374	1	"right"	1054	348	"pbp19"	"Object will fall"	"Object will stay on ground"
63519	"passive-sort"	0	3	269111	"p116140"	"passive"	"pbp19"	"A306GWTM2KVPJ0"	4	"lib/images/pbp19/problem/pbp19_2-3.jpg"	"right"	"pbp19_2-3.jpg"	535	455	152	275	18194	0	"left"	942	241	"pbp19"	"Object will fall"	"Object will stay on ground"
63519	"passive-sort"	0	3	269111	"p116140"	"passive"	"pbp19"	"A306GWTM2KVPJ0"	5	"lib/images/pbp19/problem/pbp19_2-3.jpg"	"right"	"pbp19_2-3.jpg"	535	455	942	241	20187	1	"right"	942	241	"pbp19"	"Object will fall"	"Object will stay on ground"
63519	"passive-sort"	0	3	269111	"p116140"	"passive"	"pbp19"	"A306GWTM2KVPJ0"	6	"lib/images/pbp19/problem/pbp19_1-2.jpg"	"left"	"pbp19_1-2.jpg"	755	235	930	363	26026	0	"right"	125	241	"pbp19"	"Object will fall"	"Object will stay on ground"
63519	"passive-sort"	0	3	269111	"p116140"	"passive"	"pbp19"	"A306GWTM2KVPJ0"	7	"lib/images/pbp19/problem/pbp19_1-2.jpg"	"left"	"pbp19_1-2.jpg"	755	235	125	241	27846	1	"left"	125	241	"pbp19"	"Object will fall"	"Object will stay on ground"
63519	"passive-sort"	0	3	269111	"p116140"	"passive"	"pbp19"	"A306GWTM2KVPJ0"	8	"lib/images/pbp19/problem/pbp19_1-4.jpg"	"right"	"pbp19_1-4.jpg"	755	455	942	348	34601	1	"right"	942	348	"pbp19"	"Object will fall"	"Object will stay on ground"
63519	"passive-sort"	0	3	269111	"p116140"	"passive"	"pbp19"	"A306GWTM2KVPJ0"	9	"lib/images/pbp19/problem/pbp19_3-2.jpg"	"left"	"pbp19_3-2.jpg"	425	345	928	487	36860	0	"right"	237	241	"pbp19"	"Object will fall"	"Object will stay on ground"
63519	"passive-sort"	0	3	269111	"p116140"	"passive"	"pbp19"	"A306GWTM2KVPJ0"	10	"lib/images/pbp19/problem/pbp19_3-2.jpg"	"left"	"pbp19_3-2.jpg"	425	345	237	241	38644	1	"left"	237	241	"pbp19"	"Object will fall"	"Object will stay on ground"
63519	"passive-sort"	0	3	269112	"p116140"	"passive"	"pbp19"	"A306GWTM2KVPJ0"	11	"lib/images/pbp19/problem/pbp19_2-4.jpg"	"right"	"pbp19_2-4.jpg"	645	345	258	351	44498	0	"left"	942	455	"pbp19"	"Object will fall"	"Object will stay on ground"
63519	"passive-sort"	0	3	269112	"p116140"	"passive"	"pbp19"	"A306GWTM2KVPJ0"	12	"lib/images/pbp19/problem/pbp19_2-4.jpg"	"right"	"pbp19_2-4.jpg"	645	345	942	455	45976	1	"right"	942	455	"pbp19"	"Object will fall"	"Object will stay on ground"
63519	"passive-sort"	0	3	269112	"p116140"	"passive"	"pbp19"	"A306GWTM2KVPJ0"	13	"lib/images/pbp19/problem/pbp19_3-1.jpg"	"left"	"pbp19_3-1.jpg"	645	455	237	348	48118	1	"left"	237	348	"pbp19"	"Object will fall"	"Object will stay on ground"
63519	"passive-sort"	0	3	269112	"p116140"	"passive"	"pbp19"	"A306GWTM2KVPJ0"	14	"lib/images/pbp19/problem/pbp19_1-1.jpg"	"left"	"pbp19_1-1.jpg"	425	455	1058	453	51128	0	"right"	125	348	"pbp19"	"Object will fall"	"Object will stay on ground"
63519	"passive-sort"	0	3	269112	"p116140"	"passive"	"pbp19"	"A306GWTM2KVPJ0"	15	"lib/images/pbp19/problem/pbp19_1-1.jpg"	"left"	"pbp19_1-1.jpg"	425	455	125	348	52554	1	"left"	125	348	"pbp19"	"Object will fall"	"Object will stay on ground"
63519	"passive-sort"	0	3	269112	"p116140"	"passive"	"pbp19"	"A306GWTM2KVPJ0"	16	"lib/images/pbp19/problem/pbp19_2-2.jpg"	"left"	"pbp19_2-2.jpg"	535	235	1073	451	55869	0	"right"	125	455	"pbp19"	"Object will fall"	"Object will stay on ground"
63519	"passive-sort"	0	3	269112	"p116140"	"passive"	"pbp19"	"A306GWTM2KVPJ0"	17	"lib/images/pbp19/problem/pbp19_2-2.jpg"	"left"	"pbp19_2-2.jpg"	535	235	125	455	57531	1	"left"	125	455	"pbp19"	"Object will fall"	"Object will stay on ground"
63519	"passive-sort"	0	3	269113	"p116140"	"passive"	"pbp19"	"A306GWTM2KVPJ0"	18	"lib/images/pbp19/problem/pbp19_3-4.jpg"	"right"	"pbp19_3-4.jpg"	645	235	1054	455	59120	1	"right"	1054	455	"pbp19"	"Object will fall"	"Object will stay on ground"
63519	"passive-sort"	0	3	269113	"p116140"	"passive"	"pbp19"	"A306GWTM2KVPJ0"	19	"lib/images/pbp19/problem/pbp19_2-1.jpg"	"left"	"pbp19_2-1.jpg"	425	235	237	455	60509	1	"left"	237	455	"pbp19"	"Object will fall"	"Object will stay on ground"
38232	"test-sort"	0	6	325623	"p116140"	"passive"	"pbp19"	"A306GWTM2KVPJ0"	1	"lib/images/pbp19/test/pbp19_4-1.jpg"	"left"	"pbp19_4-1.jpg"	590	307.600006103516	191.5	557.599975585938	17189	1	"left"	191.5	557.599975585938	"pbp19"	"Object will fall"	"Object will stay on ground"
38232	"test-sort"	0	6	325623	"p116140"	"passive"	"pbp19"	"A306GWTM2KVPJ0"	2	"lib/images/pbp19/test/pbp19_4-4.jpg"	"right"	"pbp19_4-4.jpg"	590	307.600006103516	191.5	557.599975585938	19818	0	"left"	191.5	557.599975585938	"pbp19"	"Object will fall"	"Object will stay on ground"
38232	"test-sort"	0	6	325623	"p116140"	"passive"	"pbp19"	"A306GWTM2KVPJ0"	3	"lib/images/pbp19/test/pbp19_5-1.jpg"	"left"	"pbp19_5-1.jpg"	590	307.600006103516	191.5	557.599975585938	22832	1	"left"	191.5	557.599975585938	"pbp19"	"Object will fall"	"Object will stay on ground"
38232	"test-sort"	0	6	325623	"p116140"	"passive"	"pbp19"	"A306GWTM2KVPJ0"	4	"lib/images/pbp19/test/pbp19_5-3.jpg"	"right"	"pbp19_5-3.jpg"	590	307.600006103516	988.5	557.599975585938	25274	1	"right"	988.5	557.599975585938	"pbp19"	"Object will fall"	"Object will stay on ground"
38232	"test-sort"	0	6	325624	"p116140"	"passive"	"pbp19"	"A306GWTM2KVPJ0"	5	"lib/images/pbp19/test/pbp19_5-2.jpg"	"left"	"pbp19_5-2.jpg"	590	307.600006103516	191.5	557.599975585938	27483	1	"left"	191.5	557.599975585938	"pbp19"	"Object will fall"	"Object will stay on ground"
38232	"test-sort"	0	6	325624	"p116140"	"passive"	"pbp19"	"A306GWTM2KVPJ0"	6	"lib/images/pbp19/test/pbp19_5-4.jpg"	"right"	"pbp19_5-4.jpg"	590	307.600006103516	988.5	557.599975585938	30525	1	"right"	988.5	557.599975585938	"pbp19"	"Object will fall"	"Object will stay on ground"
38232	"test-sort"	0	6	325624	"p116140"	"passive"	"pbp19"	"A306GWTM2KVPJ0"	7	"lib/images/pbp19/test/pbp19_4-2.jpg"	"left"	"pbp19_4-2.jpg"	590	307.600006103516	191.5	557.599975585938	32422	1	"left"	191.5	557.599975585938	"pbp19"	"Object will fall"	"Object will stay on ground"
38232	"test-sort"	0	6	325624	"p116140"	"passive"	"pbp19"	"A306GWTM2KVPJ0"	8	"lib/images/pbp19/test/pbp19_4-3.jpg"	"right"	"pbp19_4-3.jpg"	590	307.600006103516	988.5	557.599975585938	34230	1	"right"	988.5	557.599975585938	"pbp19"	"Object will fall"	"Object will stay on ground"
21128	"survey-text-leftRight"	0	7	348795	"p116140"	"passive"	"pbp19"	"A306GWTM2KVPJ0"	NA	""	""	""	NA	NA	NA	NA	NA	NA	""	NA	NA	""	"Object will fall"	"Object will stay on ground"
32339	"active-sort"	0	1	119238	"p118034"	"active"	"pbp11b"	"ATYU1AXX2P1MZ"	1	"lib/images/pbp34/problem/pbp34_1-1.jpg"	"left"	"pbp34_1-1.jpg"	425	235	125	241	6701	1	"left"	125	241	"pbp34"	"The objects were either touching each other or very close to each other"	"The objects were relatively far away from each other"
32339	"active-sort"	0	1	119239	"p118034"	"active"	"pbp11b"	"ATYU1AXX2P1MZ"	2	"lib/images/pbp34/problem/pbp34_3-1.jpg"	"left"	"pbp34_3-1.jpg"	645	235	237	241	8258	1	"left"	237	241	"pbp34"	"The objects were either touching each other or very close to each other"	"The objects were relatively far away from each other"
32339	"active-sort"	0	1	119239	"p118034"	"active"	"pbp11b"	"ATYU1AXX2P1MZ"	3	"lib/images/pbp34/problem/pbp34_3-2.jpg"	"left"	"pbp34_3-2.jpg"	755	235	125	348	10249	1	"left"	125	348	"pbp34"	"The objects were either touching each other or very close to each other"	"The objects were relatively far away from each other"
32339	"active-sort"	0	1	119239	"p118034"	"active"	"pbp11b"	"ATYU1AXX2P1MZ"	4	"lib/images/pbp34/problem/pbp34_2-2.jpg"	"left"	"pbp34_2-2.jpg"	425	345	237	348	12480	1	"left"	237	348	"pbp34"	"The objects were either touching each other or very close to each other"	"The objects were relatively far away from each other"
32339	"active-sort"	0	1	119239	"p118034"	"active"	"pbp11b"	"ATYU1AXX2P1MZ"	5	"lib/images/pbp34/problem/pbp34_1-2.jpg"	"left"	"pbp34_1-2.jpg"	535	345	125	455	13815	1	"left"	125	455	"pbp34"	"The objects were either touching each other or very close to each other"	"The objects were relatively far away from each other"
32339	"active-sort"	0	1	119239	"p118034"	"active"	"pbp11b"	"ATYU1AXX2P1MZ"	6	"lib/images/pbp34/problem/pbp34_2-3.jpg"	"right"	"pbp34_2-3.jpg"	535	235	269	439	18671	0	"left"	942	241	"pbp34"	"The objects were either touching each other or very close to each other"	"The objects were relatively far away from each other"
32339	"active-sort"	0	1	119239	"p118034"	"active"	"pbp11b"	"ATYU1AXX2P1MZ"	7	"lib/images/pbp34/problem/pbp34_2-1.jpg"	"left"	"pbp34_2-1.jpg"	645	455	237	455	21995	1	"left"	237	455	"pbp34"	"The objects were either touching each other or very close to each other"	"The objects were relatively far away from each other"
32339	"active-sort"	0	1	119239	"p118034"	"active"	"pbp11b"	"ATYU1AXX2P1MZ"	8	"lib/images/pbp34/problem/pbp34_2-3.jpg"	"right"	"pbp34_2-3.jpg"	535	235	942	241	23451	1	"right"	942	241	"pbp34"	"The objects were either touching each other or very close to each other"	"The objects were relatively far away from each other"
32339	"active-sort"	0	1	119239	"p118034"	"active"	"pbp11b"	"ATYU1AXX2P1MZ"	9	"lib/images/pbp34/problem/pbp34_1-4.jpg"	"right"	"pbp34_1-4.jpg"	645	345	1054	241	24430	1	"right"	1054	241	"pbp34"	"The objects were either touching each other or very close to each other"	"The objects were relatively far away from each other"
32339	"active-sort"	0	1	119239	"p118034"	"active"	"pbp11b"	"ATYU1AXX2P1MZ"	10	"lib/images/pbp34/problem/pbp34_3-4.jpg"	"right"	"pbp34_3-4.jpg"	755	345	942	348	25190	1	"right"	942	348	"pbp34"	"The objects were either touching each other or very close to each other"	"The objects were relatively far away from each other"
32339	"active-sort"	0	1	119239	"p118034"	"active"	"pbp11b"	"ATYU1AXX2P1MZ"	11	"lib/images/pbp34/problem/pbp34_3-3.jpg"	"right"	"pbp34_3-3.jpg"	755	455	942	455	25871	1	"right"	942	455	"pbp34"	"The objects were either touching each other or very close to each other"	"The objects were relatively far away from each other"
32339	"active-sort"	0	1	119239	"p118034"	"active"	"pbp11b"	"ATYU1AXX2P1MZ"	12	"lib/images/pbp34/problem/pbp34_1-3.jpg"	"right"	"pbp34_1-3.jpg"	535	455	1054	348	26662	1	"right"	1054	348	"pbp34"	"The objects were either touching each other or very close to each other"	"The objects were relatively far away from each other"
32339	"active-sort"	0	1	119239	"p118034"	"active"	"pbp11b"	"ATYU1AXX2P1MZ"	13	"lib/images/pbp34/problem/pbp34_2-4.jpg"	"right"	"pbp34_2-4.jpg"	425	455	1054	455	29336	1	"right"	1054	455	"pbp34"	"The objects were either touching each other or very close to each other"	"The objects were relatively far away from each other"
108702	"active-sort"	0	3	241189	"p118034"	"active"	"pbp11b"	"ATYU1AXX2P1MZ"	1	"lib/images/pbp11b/problem/pbp11b_1-3.jpg"	"right"	"pbp11b_1-3.jpg"	425	235	942	241	60503	1	"right"	942	241	"pbp11b"	"The objects were either touching each other or very close to each other"	"The objects were relatively far away from each other"
108702	"active-sort"	0	3	241189	"p118034"	"active"	"pbp11b"	"ATYU1AXX2P1MZ"	2	"lib/images/pbp11b/problem/pbp11b_2-4.jpg"	"right"	"pbp11b_2-4.jpg"	645	235	1054	241	64015	1	"right"	1054	241	"pbp11b"	"The objects were either touching each other or very close to each other"	"The objects were relatively far away from each other"
108702	"active-sort"	0	3	241189	"p118034"	"active"	"pbp11b"	"ATYU1AXX2P1MZ"	3	"lib/images/pbp11b/problem/pbp11b_1-2.jpg"	"left"	"pbp11b_1-2.jpg"	425	345	914	351	78049	0	"right"	125	241	"pbp11b"	"The objects were either touching each other or very close to each other"	"The objects were relatively far away from each other"
108702	"active-sort"	0	3	241189	"p118034"	"active"	"pbp11b"	"ATYU1AXX2P1MZ"	4	"lib/images/pbp11b/problem/pbp11b_1-2.jpg"	"left"	"pbp11b_1-2.jpg"	425	345	125	241	81545	1	"left"	125	241	"pbp11b"	"The objects were either touching each other or very close to each other"	"The objects were relatively far away from each other"
108702	"active-sort"	0	3	241189	"p118034"	"active"	"pbp11b"	"ATYU1AXX2P1MZ"	5	"lib/images/pbp11b/problem/pbp11b_3-1.jpg"	"left"	"pbp11b_3-1.jpg"	645	345	237	241	89089	1	"left"	237	241	"pbp11b"	"The objects were either touching each other or very close to each other"	"The objects were relatively far away from each other"
108702	"active-sort"	0	3	241190	"p118034"	"active"	"pbp11b"	"ATYU1AXX2P1MZ"	6	"lib/images/pbp11b/problem/pbp11b_3-2.jpg"	"left"	"pbp11b_3-2.jpg"	645	455	125	348	90817	1	"left"	125	348	"pbp11b"	"The objects were either touching each other or very close to each other"	"The objects were relatively far away from each other"
108702	"active-sort"	0	3	241190	"p118034"	"active"	"pbp11b"	"ATYU1AXX2P1MZ"	7	"lib/images/pbp11b/problem/pbp11b_2-2.jpg"	"left"	"pbp11b_2-2.jpg"	755	235	237	348	93002	1	"left"	237	348	"pbp11b"	"The objects were either touching each other or very close to each other"	"The objects were relatively far away from each other"
108702	"active-sort"	0	3	241190	"p118034"	"active"	"pbp11b"	"ATYU1AXX2P1MZ"	8	"lib/images/pbp11b/problem/pbp11b_3-4.jpg"	"right"	"pbp11b_3-4.jpg"	535	235	942	348	94588	1	"right"	942	348	"pbp11b"	"The objects were either touching each other or very close to each other"	"The objects were relatively far away from each other"
108702	"active-sort"	0	3	241190	"p118034"	"active"	"pbp11b"	"ATYU1AXX2P1MZ"	9	"lib/images/pbp11b/problem/pbp11b_1-1.jpg"	"left"	"pbp11b_1-1.jpg"	755	345	1031	357	95779	0	"right"	237	455	"pbp11b"	"The objects were either touching each other or very close to each other"	"The objects were relatively far away from each other"
108702	"active-sort"	0	3	241190	"p118034"	"active"	"pbp11b"	"ATYU1AXX2P1MZ"	10	"lib/images/pbp11b/problem/pbp11b_3-3.jpg"	"right"	"pbp11b_3-3.jpg"	535	455	1054	348	99588	1	"right"	1054	348	"pbp11b"	"The objects were either touching each other or very close to each other"	"The objects were relatively far away from each other"
108702	"active-sort"	0	3	241190	"p118034"	"active"	"pbp11b"	"ATYU1AXX2P1MZ"	11	"lib/images/pbp11b/problem/pbp11b_2-3.jpg"	"right"	"pbp11b_2-3.jpg"	535	345	942	455	101052	1	"right"	942	455	"pbp11b"	"The objects were either touching each other or very close to each other"	"The objects were relatively far away from each other"
108702	"active-sort"	0	3	241190	"p118034"	"active"	"pbp11b"	"ATYU1AXX2P1MZ"	12	"lib/images/pbp11b/problem/pbp11b_1-1.jpg"	"left"	"pbp11b_1-1.jpg"	755	345	237	455	102107	1	"left"	237	455	"pbp11b"	"The objects were either touching each other or very close to each other"	"The objects were relatively far away from each other"
108702	"active-sort"	0	3	241190	"p118034"	"active"	"pbp11b"	"ATYU1AXX2P1MZ"	13	"lib/images/pbp11b/problem/pbp11b_1-4.jpg"	"right"	"pbp11b_1-4.jpg"	425	455	1054	455	104605	1	"right"	1054	455	"pbp11b"	"The objects were either touching each other or very close to each other"	"The objects were relatively far away from each other"
108702	"active-sort"	0	3	241190	"p118034"	"active"	"pbp11b"	"ATYU1AXX2P1MZ"	14	"lib/images/pbp11b/problem/pbp11b_2-1.jpg"	"left"	"pbp11b_2-1.jpg"	755	455	125	455	105700	1	"left"	125	455	"pbp11b"	"The objects were either touching each other or very close to each other"	"The objects were relatively far away from each other"
52050	"test-sort"	0	6	321768	"p118034"	"active"	"pbp11b"	"ATYU1AXX2P1MZ"	1	"lib/images/pbp11b/test/pbp11b_5-2.jpg"	"left"	"pbp11b_5-2.jpg"	590	306	191.5	556	6113	1	"left"	191.5	556	"pbp11b"	"The objects were either touching each other or very close to each other"	"The objects were relatively far away from each other"
52050	"test-sort"	0	6	321769	"p118034"	"active"	"pbp11b"	"ATYU1AXX2P1MZ"	2	"lib/images/pbp11b/test/pbp11b_5-1.jpg"	"left"	"pbp11b_5-1.jpg"	590	306	191.5	556	9466	1	"left"	191.5	556	"pbp11b"	"The objects were either touching each other or very close to each other"	"The objects were relatively far away from each other"
52050	"test-sort"	0	6	321769	"p118034"	"active"	"pbp11b"	"ATYU1AXX2P1MZ"	3	"lib/images/pbp11b/test/pbp11b_4-1.jpg"	"left"	"pbp11b_4-1.jpg"	590	306	191.5	556	12177	1	"left"	191.5	556	"pbp11b"	"The objects were either touching each other or very close to each other"	"The objects were relatively far away from each other"
52050	"test-sort"	0	6	321769	"p118034"	"active"	"pbp11b"	"ATYU1AXX2P1MZ"	4	"lib/images/pbp11b/test/pbp11b_4-3.jpg"	"right"	"pbp11b_4-3.jpg"	590	306	988.5	556	14218	1	"right"	988.5	556	"pbp11b"	"The objects were either touching each other or very close to each other"	"The objects were relatively far away from each other"
52050	"test-sort"	0	6	321769	"p118034"	"active"	"pbp11b"	"ATYU1AXX2P1MZ"	5	"lib/images/pbp11b/test/pbp11b_5-3.jpg"	"right"	"pbp11b_5-3.jpg"	590	306	988.5	556	18627	1	"right"	988.5	556	"pbp11b"	"The objects were either touching each other or very close to each other"	"The objects were relatively far away from each other"
52050	"test-sort"	0	6	321769	"p118034"	"active"	"pbp11b"	"ATYU1AXX2P1MZ"	6	"lib/images/pbp11b/test/pbp11b_5-4.jpg"	"right"	"pbp11b_5-4.jpg"	590	306	191.5	556	43703	0	"left"	191.5	556	"pbp11b"	"The objects were either touching each other or very close to each other"	"The objects were relatively far away from each other"
52050	"test-sort"	0	6	321769	"p118034"	"active"	"pbp11b"	"ATYU1AXX2P1MZ"	7	"lib/images/pbp11b/test/pbp11b_4-4.jpg"	"right"	"pbp11b_4-4.jpg"	590	306	988.5	556	45833	1	"right"	988.5	556	"pbp11b"	"The objects were either touching each other or very close to each other"	"The objects were relatively far away from each other"
52050	"test-sort"	0	6	321769	"p118034"	"active"	"pbp11b"	"ATYU1AXX2P1MZ"	8	"lib/images/pbp11b/test/pbp11b_4-2.jpg"	"left"	"pbp11b_4-2.jpg"	590	306	191.5	556	48049	1	"left"	191.5	556	"pbp11b"	"The objects were either touching each other or very close to each other"	"The objects were relatively far away from each other"
54547	"survey-text-leftRight"	0	7	378325	"p118034"	"active"	"pbp11b"	"ATYU1AXX2P1MZ"	NA	""	""	""	NA	NA	NA	NA	NA	NA	""	NA	NA	""	"The objects were either touching each other or very close to each other"	"The objects were relatively far away from each other"
44948	"passive-sort"	0	1	169656	"p118896"	"passive"	"pbp04"	"AZY2R13Q2HGMC"	1	"lib/images/pbp34/problem/pbp34_2-4.jpg"	"right"	"pbp34_2-4.jpg"	645	235	942	241	10706	1	"right"	942	241	"pbp34"	"All shapes are squares"	"All shapes are circles"
44948	"passive-sort"	0	1	169656	"p118896"	"passive"	"pbp04"	"AZY2R13Q2HGMC"	2	"lib/images/pbp34/problem/pbp34_1-1.jpg"	"left"	"pbp34_1-1.jpg"	755	235	237	241	15764	1	"left"	237	241	"pbp34"	"All shapes are squares"	"All shapes are circles"
44948	"passive-sort"	0	1	169656	"p118896"	"passive"	"pbp04"	"AZY2R13Q2HGMC"	3	"lib/images/pbp34/problem/pbp34_3-2.jpg"	"left"	"pbp34_3-2.jpg"	645	345	237	348	18531	1	"left"	237	348	"pbp34"	"All shapes are squares"	"All shapes are circles"
44948	"passive-sort"	0	1	169656	"p118896"	"passive"	"pbp04"	"AZY2R13Q2HGMC"	4	"lib/images/pbp34/problem/pbp34_1-2.jpg"	"left"	"pbp34_1-2.jpg"	535	235	125	241	20300	1	"left"	125	241	"pbp34"	"All shapes are squares"	"All shapes are circles"
44948	"passive-sort"	0	1	169656	"p118896"	"passive"	"pbp04"	"AZY2R13Q2HGMC"	5	"lib/images/pbp34/problem/pbp34_2-1.jpg"	"left"	"pbp34_2-1.jpg"	425	455	125	348	23586	1	"left"	125	348	"pbp34"	"All shapes are squares"	"All shapes are circles"
44948	"passive-sort"	0	1	169657	"p118896"	"passive"	"pbp04"	"AZY2R13Q2HGMC"	6	"lib/images/pbp34/problem/pbp34_3-1.jpg"	"left"	"pbp34_3-1.jpg"	755	455	237	455	26092	1	"left"	237	455	"pbp34"	"All shapes are squares"	"All shapes are circles"
44948	"passive-sort"	0	1	169657	"p118896"	"passive"	"pbp04"	"AZY2R13Q2HGMC"	7	"lib/images/pbp34/problem/pbp34_3-3.jpg"	"right"	"pbp34_3-3.jpg"	425	235	113	452	28416	0	"left"	1054	241	"pbp34"	"All shapes are squares"	"All shapes are circles"
44948	"passive-sort"	0	1	169657	"p118896"	"passive"	"pbp04"	"AZY2R13Q2HGMC"	8	"lib/images/pbp34/problem/pbp34_3-3.jpg"	"right"	"pbp34_3-3.jpg"	425	235	1054	241	30432	1	"right"	1054	241	"pbp34"	"All shapes are squares"	"All shapes are circles"
44948	"passive-sort"	0	1	169657	"p118896"	"passive"	"pbp04"	"AZY2R13Q2HGMC"	9	"lib/images/pbp34/problem/pbp34_1-3.jpg"	"right"	"pbp34_1-3.jpg"	755	345	942	348	31955	1	"right"	942	348	"pbp34"	"All shapes are squares"	"All shapes are circles"
44948	"passive-sort"	0	1	169657	"p118896"	"passive"	"pbp04"	"AZY2R13Q2HGMC"	10	"lib/images/pbp34/problem/pbp34_1-4.jpg"	"right"	"pbp34_1-4.jpg"	535	455	942	455	34483	1	"right"	942	455	"pbp34"	"All shapes are squares"	"All shapes are circles"
44948	"passive-sort"	0	1	169657	"p118896"	"passive"	"pbp04"	"AZY2R13Q2HGMC"	11	"lib/images/pbp34/problem/pbp34_3-4.jpg"	"right"	"pbp34_3-4.jpg"	425	345	1054	348	37787	1	"right"	1054	348	"pbp34"	"All shapes are squares"	"All shapes are circles"
44948	"passive-sort"	0	1	169658	"p118896"	"passive"	"pbp04"	"AZY2R13Q2HGMC"	12	"lib/images/pbp34/problem/pbp34_2-3.jpg"	"right"	"pbp34_2-3.jpg"	645	455	1054	455	40617	1	"right"	1054	455	"pbp34"	"All shapes are squares"	"All shapes are circles"
44948	"passive-sort"	0	1	169658	"p118896"	"passive"	"pbp04"	"AZY2R13Q2HGMC"	13	"lib/images/pbp34/problem/pbp34_2-2.jpg"	"left"	"pbp34_2-2.jpg"	535	345	125	455	41939	1	"left"	125	455	"pbp34"	"All shapes are squares"	"All shapes are circles"
39199	"passive-sort"	0	3	212864	"p118896"	"passive"	"pbp04"	"AZY2R13Q2HGMC"	1	"lib/images/pbp04/problem/pbp04_1-2.jpg"	"left"	"pbp04_1-2.jpg"	425	455	944	454	9323	0	"right"	237	455	"pbp04"	"All shapes are squares"	"All shapes are circles"
39199	"passive-sort"	0	3	212864	"p118896"	"passive"	"pbp04"	"AZY2R13Q2HGMC"	2	"lib/images/pbp04/problem/pbp04_1-2.jpg"	"left"	"pbp04_1-2.jpg"	425	455	237	455	11171	1	"left"	237	455	"pbp04"	"All shapes are squares"	"All shapes are circles"
39199	"passive-sort"	0	3	212864	"p118896"	"passive"	"pbp04"	"AZY2R13Q2HGMC"	3	"lib/images/pbp04/problem/pbp04_1-3.jpg"	"right"	"pbp04_1-3.jpg"	645	455	245	371	13697	0	"left"	942	455	"pbp04"	"All shapes are squares"	"All shapes are circles"
39199	"passive-sort"	0	3	212864	"p118896"	"passive"	"pbp04"	"AZY2R13Q2HGMC"	4	"lib/images/pbp04/problem/pbp04_1-3.jpg"	"right"	"pbp04_1-3.jpg"	645	455	942	455	16844	1	"right"	942	455	"pbp04"	"All shapes are squares"	"All shapes are circles"
39199	"passive-sort"	0	3	212864	"p118896"	"passive"	"pbp04"	"AZY2R13Q2HGMC"	5	"lib/images/pbp04/problem/pbp04_3-4.jpg"	"right"	"pbp04_3-4.jpg"	535	345	942	348	19706	1	"right"	942	348	"pbp04"	"All shapes are squares"	"All shapes are circles"
39199	"passive-sort"	0	3	212864	"p118896"	"passive"	"pbp04"	"AZY2R13Q2HGMC"	6	"lib/images/pbp04/problem/pbp04_2-2.jpg"	"left"	"pbp04_2-2.jpg"	645	345	237	348	21247	1	"left"	237	348	"pbp04"	"All shapes are squares"	"All shapes are circles"
39199	"passive-sort"	0	3	212864	"p118896"	"passive"	"pbp04"	"AZY2R13Q2HGMC"	7	"lib/images/pbp04/problem/pbp04_2-1.jpg"	"left"	"pbp04_2-1.jpg"	535	235	237	241	22532	1	"left"	237	241	"pbp04"	"All shapes are squares"	"All shapes are circles"
39199	"passive-sort"	0	3	212865	"p118896"	"passive"	"pbp04"	"AZY2R13Q2HGMC"	8	"lib/images/pbp04/problem/pbp04_2-3.jpg"	"right"	"pbp04_2-3.jpg"	425	345	942	241	24052	1	"right"	942	241	"pbp04"	"All shapes are squares"	"All shapes are circles"
39199	"passive-sort"	0	3	212865	"p118896"	"passive"	"pbp04"	"AZY2R13Q2HGMC"	9	"lib/images/pbp04/problem/pbp04_1-1.jpg"	"left"	"pbp04_1-1.jpg"	755	345	125	348	26531	1	"left"	125	348	"pbp04"	"All shapes are squares"	"All shapes are circles"
39199	"passive-sort"	0	3	212865	"p118896"	"passive"	"pbp04"	"AZY2R13Q2HGMC"	10	"lib/images/pbp04/problem/pbp04_3-2.jpg"	"left"	"pbp04_3-2.jpg"	425	235	125	241	29549	1	"left"	125	241	"pbp04"	"All shapes are squares"	"All shapes are circles"
39199	"passive-sort"	0	3	212865	"p118896"	"passive"	"pbp04"	"AZY2R13Q2HGMC"	11	"lib/images/pbp04/problem/pbp04_3-3.jpg"	"right"	"pbp04_3-3.jpg"	645	235	1054	241	31218	1	"right"	1054	241	"pbp04"	"All shapes are squares"	"All shapes are circles"
39199	"passive-sort"	0	3	212865	"p118896"	"passive"	"pbp04"	"AZY2R13Q2HGMC"	12	"lib/images/pbp04/problem/pbp04_3-1.jpg"	"left"	"pbp04_3-1.jpg"	535	455	125	455	33362	1	"left"	125	455	"pbp04"	"All shapes are squares"	"All shapes are circles"
39199	"passive-sort"	0	3	212865	"p118896"	"passive"	"pbp04"	"AZY2R13Q2HGMC"	13	"lib/images/pbp04/problem/pbp04_1-4.jpg"	"right"	"pbp04_1-4.jpg"	755	235	1054	348	34947	1	"right"	1054	348	"pbp04"	"All shapes are squares"	"All shapes are circles"
39199	"passive-sort"	0	3	212865	"p118896"	"passive"	"pbp04"	"AZY2R13Q2HGMC"	14	"lib/images/pbp04/problem/pbp04_2-4.jpg"	"right"	"pbp04_2-4.jpg"	755	455	1054	455	36187	1	"right"	1054	455	"pbp04"	"All shapes are squares"	"All shapes are circles"
32589	"test-sort"	0	6	257491	"p118896"	"passive"	"pbp04"	"AZY2R13Q2HGMC"	1	"lib/images/pbp04/test/pbp04_5-2.jpg"	"left"	"pbp04_5-2.jpg"	590	307.600006103516	191.5	557.600006103516	12428	1	"left"	191.5	557.600006103516	"pbp04"	"All shapes are squares"	"All shapes are circles"
32589	"test-sort"	0	6	257491	"p118896"	"passive"	"pbp04"	"AZY2R13Q2HGMC"	2	"lib/images/pbp04/test/pbp04_4-1.jpg"	"left"	"pbp04_4-1.jpg"	590	307.600006103516	191.5	557.600006103516	15690	1	"left"	191.5	557.600006103516	"pbp04"	"All shapes are squares"	"All shapes are circles"
32589	"test-sort"	0	6	257491	"p118896"	"passive"	"pbp04"	"AZY2R13Q2HGMC"	3	"lib/images/pbp04/test/pbp04_4-3.jpg"	"right"	"pbp04_4-3.jpg"	590	307.600006103516	988.5	557.600006103516	18204	1	"right"	988.5	557.600006103516	"pbp04"	"All shapes are squares"	"All shapes are circles"
32589	"test-sort"	0	6	257491	"p118896"	"passive"	"pbp04"	"AZY2R13Q2HGMC"	4	"lib/images/pbp04/test/pbp04_4-4.jpg"	"right"	"pbp04_4-4.jpg"	590	307.600006103516	988.5	557.600006103516	20522	1	"right"	988.5	557.600006103516	"pbp04"	"All shapes are squares"	"All shapes are circles"
32589	"test-sort"	0	6	257492	"p118896"	"passive"	"pbp04"	"AZY2R13Q2HGMC"	5	"lib/images/pbp04/test/pbp04_4-2.jpg"	"left"	"pbp04_4-2.jpg"	590	307.600006103516	191.5	557.600006103516	22467	1	"left"	191.5	557.600006103516	"pbp04"	"All shapes are squares"	"All shapes are circles"
32589	"test-sort"	0	6	257492	"p118896"	"passive"	"pbp04"	"AZY2R13Q2HGMC"	6	"lib/images/pbp04/test/pbp04_5-4.jpg"	"right"	"pbp04_5-4.jpg"	590	307.600006103516	988.5	557.600006103516	24610	1	"right"	988.5	557.600006103516	"pbp04"	"All shapes are squares"	"All shapes are circles"
32589	"test-sort"	0	6	257492	"p118896"	"passive"	"pbp04"	"AZY2R13Q2HGMC"	7	"lib/images/pbp04/test/pbp04_5-3.jpg"	"right"	"pbp04_5-3.jpg"	590	307.600006103516	191.5	557.600006103516	26715	0	"left"	191.5	557.600006103516	"pbp04"	"All shapes are squares"	"All shapes are circles"
32589	"test-sort"	0	6	257492	"p118896"	"passive"	"pbp04"	"AZY2R13Q2HGMC"	8	"lib/images/pbp04/test/pbp04_5-1.jpg"	"left"	"pbp04_5-1.jpg"	590	307.600006103516	191.5	557.600006103516	28594	1	"left"	191.5	557.600006103516	"pbp04"	"All shapes are squares"	"All shapes are circles"
22364	"survey-text-leftRight"	0	7	281927	"p118896"	"passive"	"pbp04"	"AZY2R13Q2HGMC"	NA	""	""	""	NA	NA	NA	NA	NA	NA	""	NA	NA	""	"All shapes are squares"	"All shapes are circles"
26822	"active-sort"	0	1	125400	"p12271"	"active"	"pbp13"	"A2WGF1A9LXNB8Z"	1	"lib/images/pbp34/problem/pbp34_3-2.jpg"	"left"	"pbp34_3-2.jpg"	425	235	237	241	4218	1	"left"	237	241	"pbp34"	"they are all stacked on one thing at the bottom"	"there are 2 things holding up the structure"
26822	"active-sort"	0	1	125401	"p12271"	"active"	"pbp13"	"A2WGF1A9LXNB8Z"	2	"lib/images/pbp34/problem/pbp34_2-1.jpg"	"left"	"pbp34_2-1.jpg"	425	345	237	348	5521	1	"left"	237	348	"pbp34"	"they are all stacked on one thing at the bottom"	"there are 2 things holding up the structure"
26822	"active-sort"	0	1	125401	"p12271"	"active"	"pbp13"	"A2WGF1A9LXNB8Z"	3	"lib/images/pbp34/problem/pbp34_3-1.jpg"	"left"	"pbp34_3-1.jpg"	535	455	237	455	7157	1	"left"	237	455	"pbp34"	"they are all stacked on one thing at the bottom"	"there are 2 things holding up the structure"
26822	"active-sort"	0	1	125401	"p12271"	"active"	"pbp13"	"A2WGF1A9LXNB8Z"	4	"lib/images/pbp34/problem/pbp34_2-2.jpg"	"left"	"pbp34_2-2.jpg"	645	235	125	241	12981	1	"left"	125	241	"pbp34"	"they are all stacked on one thing at the bottom"	"there are 2 things holding up the structure"
26822	"active-sort"	0	1	125402	"p12271"	"active"	"pbp13"	"A2WGF1A9LXNB8Z"	5	"lib/images/pbp34/problem/pbp34_1-2.jpg"	"left"	"pbp34_1-2.jpg"	755	455	125	348	17856	1	"left"	125	348	"pbp34"	"they are all stacked on one thing at the bottom"	"there are 2 things holding up the structure"
26822	"active-sort"	0	1	125402	"p12271"	"active"	"pbp13"	"A2WGF1A9LXNB8Z"	6	"lib/images/pbp34/problem/pbp34_1-1.jpg"	"left"	"pbp34_1-1.jpg"	535	345	125	455	18816	1	"left"	125	455	"pbp34"	"they are all stacked on one thing at the bottom"	"there are 2 things holding up the structure"
26822	"active-sort"	0	1	125402	"p12271"	"active"	"pbp13"	"A2WGF1A9LXNB8Z"	7	"lib/images/pbp34/problem/pbp34_1-4.jpg"	"right"	"pbp34_1-4.jpg"	425	455	942	455	19557	1	"right"	942	455	"pbp34"	"they are all stacked on one thing at the bottom"	"there are 2 things holding up the structure"
26822	"active-sort"	0	1	125402	"p12271"	"active"	"pbp13"	"A2WGF1A9LXNB8Z"	8	"lib/images/pbp34/problem/pbp34_1-3.jpg"	"right"	"pbp34_1-3.jpg"	755	345	942	348	20306	1	"right"	942	348	"pbp34"	"they are all stacked on one thing at the bottom"	"there are 2 things holding up the structure"
26822	"active-sort"	0	1	125402	"p12271"	"active"	"pbp13"	"A2WGF1A9LXNB8Z"	9	"lib/images/pbp34/problem/pbp34_3-3.jpg"	"right"	"pbp34_3-3.jpg"	645	345	1054	348	21217	1	"right"	1054	348	"pbp34"	"they are all stacked on one thing at the bottom"	"there are 2 things holding up the structure"
26822	"active-sort"	0	1	125403	"p12271"	"active"	"pbp13"	"A2WGF1A9LXNB8Z"	10	"lib/images/pbp34/problem/pbp34_2-3.jpg"	"right"	"pbp34_2-3.jpg"	645	455	1054	455	21989	1	"right"	1054	455	"pbp34"	"they are all stacked on one thing at the bottom"	"there are 2 things holding up the structure"
26822	"active-sort"	0	1	125403	"p12271"	"active"	"pbp13"	"A2WGF1A9LXNB8Z"	11	"lib/images/pbp34/problem/pbp34_3-4.jpg"	"right"	"pbp34_3-4.jpg"	755	235	1054	241	22741	1	"right"	1054	241	"pbp34"	"they are all stacked on one thing at the bottom"	"there are 2 things holding up the structure"
26822	"active-sort"	0	1	125404	"p12271"	"active"	"pbp13"	"A2WGF1A9LXNB8Z"	12	"lib/images/pbp34/problem/pbp34_2-4.jpg"	"right"	"pbp34_2-4.jpg"	535	235	942	241	23807	1	"right"	942	241	"pbp34"	"they are all stacked on one thing at the bottom"	"there are 2 things holding up the structure"
47631	"active-sort"	0	3	178983	"p12271"	"active"	"pbp13"	"A2WGF1A9LXNB8Z"	1	"lib/images/pbp13/problem/pbp13_2-3.jpg"	"right"	"pbp13_2-3.jpg"	645	235	264	228	15734	0	"left"	942	241	"pbp13"	"they are all stacked on one thing at the bottom"	"there are 2 things holding up the structure"
47631	"active-sort"	0	3	178983	"p12271"	"active"	"pbp13"	"A2WGF1A9LXNB8Z"	2	"lib/images/pbp13/problem/pbp13_2-3.jpg"	"right"	"pbp13_2-3.jpg"	645	235	942	241	17392	1	"right"	942	241	"pbp13"	"they are all stacked on one thing at the bottom"	"there are 2 things holding up the structure"
47631	"active-sort"	0	3	178984	"p12271"	"active"	"pbp13"	"A2WGF1A9LXNB8Z"	3	"lib/images/pbp13/problem/pbp13_3-3.jpg"	"right"	"pbp13_3-3.jpg"	755	235	1054	241	18199	1	"right"	1054	241	"pbp13"	"they are all stacked on one thing at the bottom"	"there are 2 things holding up the structure"
47631	"active-sort"	0	3	178984	"p12271"	"active"	"pbp13"	"A2WGF1A9LXNB8Z"	4	"lib/images/pbp13/problem/pbp13_2-4.jpg"	"right"	"pbp13_2-4.jpg"	425	455	942	348	23299	1	"right"	942	348	"pbp13"	"they are all stacked on one thing at the bottom"	"there are 2 things holding up the structure"
47631	"active-sort"	0	3	178984	"p12271"	"active"	"pbp13"	"A2WGF1A9LXNB8Z"	5	"lib/images/pbp13/problem/pbp13_3-4.jpg"	"right"	"pbp13_3-4.jpg"	645	455	942	455	27254	1	"right"	942	455	"pbp13"	"they are all stacked on one thing at the bottom"	"there are 2 things holding up the structure"
47631	"active-sort"	0	3	178985	"p12271"	"active"	"pbp13"	"A2WGF1A9LXNB8Z"	6	"lib/images/pbp13/problem/pbp13_1-4.jpg"	"right"	"pbp13_1-4.jpg"	535	235	1054	348	29717	1	"right"	1054	348	"pbp13"	"they are all stacked on one thing at the bottom"	"there are 2 things holding up the structure"
47631	"active-sort"	0	3	178985	"p12271"	"active"	"pbp13"	"A2WGF1A9LXNB8Z"	7	"lib/images/pbp13/problem/pbp13_2-1.jpg"	"left"	"pbp13_2-1.jpg"	535	455	1027	464	32231	0	"right"	237	455	"pbp13"	"they are all stacked on one thing at the bottom"	"there are 2 things holding up the structure"
47631	"active-sort"	0	3	178986	"p12271"	"active"	"pbp13"	"A2WGF1A9LXNB8Z"	8	"lib/images/pbp13/problem/pbp13_2-1.jpg"	"left"	"pbp13_2-1.jpg"	535	455	237	455	34131	1	"left"	237	455	"pbp13"	"they are all stacked on one thing at the bottom"	"there are 2 things holding up the structure"
47631	"active-sort"	0	3	178986	"p12271"	"active"	"pbp13"	"A2WGF1A9LXNB8Z"	9	"lib/images/pbp13/problem/pbp13_1-1.jpg"	"left"	"pbp13_1-1.jpg"	425	345	237	348	35246	1	"left"	237	348	"pbp13"	"they are all stacked on one thing at the bottom"	"there are 2 things holding up the structure"
47631	"active-sort"	0	3	178987	"p12271"	"active"	"pbp13"	"A2WGF1A9LXNB8Z"	10	"lib/images/pbp13/problem/pbp13_3-2.jpg"	"left"	"pbp13_3-2.jpg"	425	235	237	241	36311	1	"left"	237	241	"pbp13"	"they are all stacked on one thing at the bottom"	"there are 2 things holding up the structure"
47631	"active-sort"	0	3	178989	"p12271"	"active"	"pbp13"	"A2WGF1A9LXNB8Z"	11	"lib/images/pbp13/problem/pbp13_1-2.jpg"	"left"	"pbp13_1-2.jpg"	535	345	125	241	37729	1	"left"	125	241	"pbp13"	"they are all stacked on one thing at the bottom"	"there are 2 things holding up the structure"
47631	"active-sort"	0	3	178989	"p12271"	"active"	"pbp13"	"A2WGF1A9LXNB8Z"	12	"lib/images/pbp13/problem/pbp13_1-3.jpg"	"right"	"pbp13_1-3.jpg"	755	345	1054	455	40653	1	"right"	1054	455	"pbp13"	"they are all stacked on one thing at the bottom"	"there are 2 things holding up the structure"
47631	"active-sort"	0	3	178990	"p12271"	"active"	"pbp13"	"A2WGF1A9LXNB8Z"	13	"lib/images/pbp13/problem/pbp13_2-2.jpg"	"left"	"pbp13_2-2.jpg"	645	345	125	348	41916	1	"left"	125	348	"pbp13"	"they are all stacked on one thing at the bottom"	"there are 2 things holding up the structure"
47631	"active-sort"	0	3	178990	"p12271"	"active"	"pbp13"	"A2WGF1A9LXNB8Z"	14	"lib/images/pbp13/problem/pbp13_3-1.jpg"	"left"	"pbp13_3-1.jpg"	755	455	125	455	44607	1	"left"	125	455	"pbp13"	"they are all stacked on one thing at the bottom"	"there are 2 things holding up the structure"
29245	"test-sort"	0	6	214372	"p12271"	"active"	"pbp13"	"A2WGF1A9LXNB8Z"	1	"lib/images/pbp13/test/pbp13_5-2.jpg"	"left"	"pbp13_5-2.jpg"	590	307.600006103516	191.5	557.600006103516	8393	1	"left"	191.5	557.600006103516	"pbp13"	"they are all stacked on one thing at the bottom"	"there are 2 things holding up the structure"
29245	"test-sort"	0	6	214373	"p12271"	"active"	"pbp13"	"A2WGF1A9LXNB8Z"	2	"lib/images/pbp13/test/pbp13_4-3.jpg"	"right"	"pbp13_4-3.jpg"	590	307.600006103516	988.5	557.600006103516	11398	1	"right"	988.5	557.600006103516	"pbp13"	"they are all stacked on one thing at the bottom"	"there are 2 things holding up the structure"
29245	"test-sort"	0	6	214373	"p12271"	"active"	"pbp13"	"A2WGF1A9LXNB8Z"	3	"lib/images/pbp13/test/pbp13_4-2.jpg"	"left"	"pbp13_4-2.jpg"	590	307.600006103516	191.5	557.600006103516	13204	1	"left"	191.5	557.600006103516	"pbp13"	"they are all stacked on one thing at the bottom"	"there are 2 things holding up the structure"
29245	"test-sort"	0	6	214373	"p12271"	"active"	"pbp13"	"A2WGF1A9LXNB8Z"	4	"lib/images/pbp13/test/pbp13_4-1.jpg"	"left"	"pbp13_4-1.jpg"	590	307.600006103516	191.5	557.600006103516	15774	1	"left"	191.5	557.600006103516	"pbp13"	"they are all stacked on one thing at the bottom"	"there are 2 things holding up the structure"
29245	"test-sort"	0	6	214375	"p12271"	"active"	"pbp13"	"A2WGF1A9LXNB8Z"	5	"lib/images/pbp13/test/pbp13_5-3.jpg"	"right"	"pbp13_5-3.jpg"	590	307.600006103516	988.5	557.600006103516	17818	1	"right"	988.5	557.600006103516	"pbp13"	"they are all stacked on one thing at the bottom"	"there are 2 things holding up the structure"
29245	"test-sort"	0	6	214375	"p12271"	"active"	"pbp13"	"A2WGF1A9LXNB8Z"	6	"lib/images/pbp13/test/pbp13_5-1.jpg"	"left"	"pbp13_5-1.jpg"	590	307.600006103516	191.5	557.600006103516	20089	1	"left"	191.5	557.600006103516	"pbp13"	"they are all stacked on one thing at the bottom"	"there are 2 things holding up the structure"
29245	"test-sort"	0	6	214375	"p12271"	"active"	"pbp13"	"A2WGF1A9LXNB8Z"	7	"lib/images/pbp13/test/pbp13_5-4.jpg"	"right"	"pbp13_5-4.jpg"	590	307.600006103516	988.5	557.600006103516	22119	1	"right"	988.5	557.600006103516	"pbp13"	"they are all stacked on one thing at the bottom"	"there are 2 things holding up the structure"
29245	"test-sort"	0	6	214376	"p12271"	"active"	"pbp13"	"A2WGF1A9LXNB8Z"	8	"lib/images/pbp13/test/pbp13_4-4.jpg"	"right"	"pbp13_4-4.jpg"	590	307.600006103516	988.5	557.600006103516	25266	1	"right"	988.5	557.600006103516	"pbp13"	"they are all stacked on one thing at the bottom"	"there are 2 things holding up the structure"
33598	"survey-text-leftRight"	0	7	250098	"p12271"	"active"	"pbp13"	"A2WGF1A9LXNB8Z"	NA	""	""	""	NA	NA	NA	NA	NA	NA	""	NA	NA	""	"they are all stacked on one thing at the bottom"	"there are 2 things holding up the structure"
47904	"active-sort"	0	1	115765	"p131293"	"active"	"pbp04"	"A2ODG85J9YRCCJ"	1	"lib/images/pbp34/problem/pbp34_1-1.jpg"	"left"	"pbp34_1-1.jpg"	645	235	125	241	5366	1	"left"	125	241	"pbp34"	"all were squares"	"all were circles"
47904	"active-sort"	0	1	115765	"p131293"	"active"	"pbp04"	"A2ODG85J9YRCCJ"	2	"lib/images/pbp34/problem/pbp34_1-4.jpg"	"right"	"pbp34_1-4.jpg"	535	345	203	240	7014	0	"left"	942	455	"pbp34"	"all were squares"	"all were circles"
47904	"active-sort"	0	1	115765	"p131293"	"active"	"pbp04"	"A2ODG85J9YRCCJ"	3	"lib/images/pbp34/problem/pbp34_1-2.jpg"	"left"	"pbp34_1-2.jpg"	755	455	237	241	15170	1	"left"	237	241	"pbp34"	"all were squares"	"all were circles"
47904	"active-sort"	0	1	115765	"p131293"	"active"	"pbp04"	"A2ODG85J9YRCCJ"	4	"lib/images/pbp34/problem/pbp34_2-3.jpg"	"right"	"pbp34_2-3.jpg"	425	235	121	352	17367	0	"left"	942	241	"pbp34"	"all were squares"	"all were circles"
47904	"active-sort"	0	1	115765	"p131293"	"active"	"pbp04"	"A2ODG85J9YRCCJ"	5	"lib/images/pbp34/problem/pbp34_2-2.jpg"	"left"	"pbp34_2-2.jpg"	535	235	125	348	19258	1	"left"	125	348	"pbp34"	"all were squares"	"all were circles"
47904	"active-sort"	0	1	115765	"p131293"	"active"	"pbp04"	"A2ODG85J9YRCCJ"	6	"lib/images/pbp34/problem/pbp34_2-3.jpg"	"right"	"pbp34_2-3.jpg"	425	235	222	341	20794	0	"left"	942	241	"pbp34"	"all were squares"	"all were circles"
47904	"active-sort"	0	1	115765	"p131293"	"active"	"pbp04"	"A2ODG85J9YRCCJ"	7	"lib/images/pbp34/problem/pbp34_2-1.jpg"	"left"	"pbp34_2-1.jpg"	645	345	237	348	23322	1	"left"	237	348	"pbp34"	"all were squares"	"all were circles"
47904	"active-sort"	0	1	115765	"p131293"	"active"	"pbp04"	"A2ODG85J9YRCCJ"	8	"lib/images/pbp34/problem/pbp34_3-3.jpg"	"right"	"pbp34_3-3.jpg"	425	455	117	484	25620	0	"left"	942	348	"pbp34"	"all were squares"	"all were circles"
47904	"active-sort"	0	1	115765	"p131293"	"active"	"pbp04"	"A2ODG85J9YRCCJ"	9	"lib/images/pbp34/problem/pbp34_3-2.jpg"	"left"	"pbp34_3-2.jpg"	535	455	125	455	27696	1	"left"	125	455	"pbp34"	"all were squares"	"all were circles"
47904	"active-sort"	0	1	115765	"p131293"	"active"	"pbp04"	"A2ODG85J9YRCCJ"	10	"lib/images/pbp34/problem/pbp34_3-3.jpg"	"right"	"pbp34_3-3.jpg"	425	455	215	471	29591	0	"left"	942	348	"pbp34"	"all were squares"	"all were circles"
47904	"active-sort"	0	1	115765	"p131293"	"active"	"pbp04"	"A2ODG85J9YRCCJ"	11	"lib/images/pbp34/problem/pbp34_3-4.jpg"	"right"	"pbp34_3-4.jpg"	755	345	220	465	31619	0	"left"	1054	348	"pbp34"	"all were squares"	"all were circles"
47904	"active-sort"	0	1	115765	"p131293"	"active"	"pbp04"	"A2ODG85J9YRCCJ"	12	"lib/images/pbp34/problem/pbp34_3-1.jpg"	"left"	"pbp34_3-1.jpg"	755	235	237	455	33970	1	"left"	237	455	"pbp34"	"all were squares"	"all were circles"
47904	"active-sort"	0	1	115765	"p131293"	"active"	"pbp04"	"A2ODG85J9YRCCJ"	13	"lib/images/pbp34/problem/pbp34_2-3.jpg"	"right"	"pbp34_2-3.jpg"	425	235	942	241	36077	1	"right"	942	241	"pbp34"	"all were squares"	"all were circles"
47904	"active-sort"	0	1	115765	"p131293"	"active"	"pbp04"	"A2ODG85J9YRCCJ"	14	"lib/images/pbp34/problem/pbp34_2-4.jpg"	"right"	"pbp34_2-4.jpg"	425	345	1054	241	38237	1	"right"	1054	241	"pbp34"	"all were squares"	"all were circles"
47904	"active-sort"	0	1	115765	"p131293"	"active"	"pbp04"	"A2ODG85J9YRCCJ"	15	"lib/images/pbp34/problem/pbp34_3-4.jpg"	"right"	"pbp34_3-4.jpg"	755	345	1054	348	39768	1	"right"	1054	348	"pbp34"	"all were squares"	"all were circles"
47904	"active-sort"	0	1	115765	"p131293"	"active"	"pbp04"	"A2ODG85J9YRCCJ"	16	"lib/images/pbp34/problem/pbp34_3-3.jpg"	"right"	"pbp34_3-3.jpg"	425	455	942	348	41691	1	"right"	942	348	"pbp34"	"all were squares"	"all were circles"
47904	"active-sort"	0	1	115765	"p131293"	"active"	"pbp04"	"A2ODG85J9YRCCJ"	17	"lib/images/pbp34/problem/pbp34_1-4.jpg"	"right"	"pbp34_1-4.jpg"	535	345	942	455	43382	1	"right"	942	455	"pbp34"	"all were squares"	"all were circles"
47904	"active-sort"	0	1	115765	"p131293"	"active"	"pbp04"	"A2ODG85J9YRCCJ"	18	"lib/images/pbp34/problem/pbp34_1-3.jpg"	"right"	"pbp34_1-3.jpg"	645	455	1054	455	44895	1	"right"	1054	455	"pbp34"	"all were squares"	"all were circles"
44298	"active-sort"	0	3	169786	"p131293"	"active"	"pbp04"	"A2ODG85J9YRCCJ"	1	"lib/images/pbp04/problem/pbp04_2-3.jpg"	"right"	"pbp04_2-3.jpg"	535	235	133	254	3924	0	"left"	1054	241	"pbp04"	"all were squares"	"all were circles"
44298	"active-sort"	0	3	169786	"p131293"	"active"	"pbp04"	"A2ODG85J9YRCCJ"	2	"lib/images/pbp04/problem/pbp04_2-3.jpg"	"right"	"pbp04_2-3.jpg"	535	235	245	234	5876	0	"left"	1054	241	"pbp04"	"all were squares"	"all were circles"
44298	"active-sort"	0	3	169786	"p131293"	"active"	"pbp04"	"A2ODG85J9YRCCJ"	3	"lib/images/pbp04/problem/pbp04_2-1.jpg"	"left"	"pbp04_2-1.jpg"	425	235	125	241	7536	1	"left"	125	241	"pbp04"	"all were squares"	"all were circles"
44298	"active-sort"	0	3	169786	"p131293"	"active"	"pbp04"	"A2ODG85J9YRCCJ"	4	"lib/images/pbp04/problem/pbp04_2-2.jpg"	"left"	"pbp04_2-2.jpg"	425	345	237	241	9230	1	"left"	237	241	"pbp04"	"all were squares"	"all were circles"
44298	"active-sort"	0	3	169786	"p131293"	"active"	"pbp04"	"A2ODG85J9YRCCJ"	5	"lib/images/pbp04/problem/pbp04_2-3.jpg"	"right"	"pbp04_2-3.jpg"	535	235	126	351	15416	0	"left"	1054	241	"pbp04"	"all were squares"	"all were circles"
44298	"active-sort"	0	3	169786	"p131293"	"active"	"pbp04"	"A2ODG85J9YRCCJ"	6	"lib/images/pbp04/problem/pbp04_2-3.jpg"	"right"	"pbp04_2-3.jpg"	535	235	1054	241	17426	1	"right"	1054	241	"pbp04"	"all were squares"	"all were circles"
44298	"active-sort"	0	3	169786	"p131293"	"active"	"pbp04"	"A2ODG85J9YRCCJ"	7	"lib/images/pbp04/problem/pbp04_2-4.jpg"	"right"	"pbp04_2-4.jpg"	755	235	942	241	18934	1	"right"	942	241	"pbp04"	"all were squares"	"all were circles"
44298	"active-sort"	0	3	169786	"p131293"	"active"	"pbp04"	"A2ODG85J9YRCCJ"	8	"lib/images/pbp04/problem/pbp04_1-3.jpg"	"right"	"pbp04_1-3.jpg"	755	345	1054	348	23522	1	"right"	1054	348	"pbp04"	"all were squares"	"all were circles"
44298	"active-sort"	0	3	169786	"p131293"	"active"	"pbp04"	"A2ODG85J9YRCCJ"	9	"lib/images/pbp04/problem/pbp04_1-4.jpg"	"right"	"pbp04_1-4.jpg"	535	345	942	348	28778	1	"right"	942	348	"pbp04"	"all were squares"	"all were circles"
44298	"active-sort"	0	3	169786	"p131293"	"active"	"pbp04"	"A2ODG85J9YRCCJ"	10	"lib/images/pbp04/problem/pbp04_3-3.jpg"	"right"	"pbp04_3-3.jpg"	645	235	1054	455	30962	1	"right"	1054	455	"pbp04"	"all were squares"	"all were circles"
44298	"active-sort"	0	3	169786	"p131293"	"active"	"pbp04"	"A2ODG85J9YRCCJ"	11	"lib/images/pbp04/problem/pbp04_3-4.jpg"	"right"	"pbp04_3-4.jpg"	645	345	942	455	33045	1	"right"	942	455	"pbp04"	"all were squares"	"all were circles"
44298	"active-sort"	0	3	169786	"p131293"	"active"	"pbp04"	"A2ODG85J9YRCCJ"	12	"lib/images/pbp04/problem/pbp04_1-1.jpg"	"left"	"pbp04_1-1.jpg"	755	455	125	348	35315	1	"left"	125	348	"pbp04"	"all were squares"	"all were circles"
44298	"active-sort"	0	3	169786	"p131293"	"active"	"pbp04"	"A2ODG85J9YRCCJ"	13	"lib/images/pbp04/problem/pbp04_1-2.jpg"	"left"	"pbp04_1-2.jpg"	535	455	237	348	37188	1	"left"	237	348	"pbp04"	"all were squares"	"all were circles"
44298	"active-sort"	0	3	169786	"p131293"	"active"	"pbp04"	"A2ODG85J9YRCCJ"	14	"lib/images/pbp04/problem/pbp04_3-1.jpg"	"left"	"pbp04_3-1.jpg"	425	455	125	455	39311	1	"left"	125	455	"pbp04"	"all were squares"	"all were circles"
44298	"active-sort"	0	3	169786	"p131293"	"active"	"pbp04"	"A2ODG85J9YRCCJ"	15	"lib/images/pbp04/problem/pbp04_3-2.jpg"	"left"	"pbp04_3-2.jpg"	645	455	237	455	41278	1	"left"	237	455	"pbp04"	"all were squares"	"all were circles"
33562	"test-sort"	0	6	221460	"p131293"	"active"	"pbp04"	"A2ODG85J9YRCCJ"	1	"lib/images/pbp04/test/pbp04_4-4.jpg"	"right"	"pbp04_4-4.jpg"	590	306	191.5	556	2862	0	"left"	191.5	556	"pbp04"	"all were squares"	"all were circles"
33562	"test-sort"	0	6	221460	"p131293"	"active"	"pbp04"	"A2ODG85J9YRCCJ"	2	"lib/images/pbp04/test/pbp04_4-2.jpg"	"left"	"pbp04_4-2.jpg"	590	306	191.5	556	14361	1	"left"	191.5	556	"pbp04"	"all were squares"	"all were circles"
33562	"test-sort"	0	6	221460	"p131293"	"active"	"pbp04"	"A2ODG85J9YRCCJ"	3	"lib/images/pbp04/test/pbp04_5-3.jpg"	"right"	"pbp04_5-3.jpg"	590	306	988.5	556	18622	1	"right"	988.5	556	"pbp04"	"all were squares"	"all were circles"
33562	"test-sort"	0	6	221460	"p131293"	"active"	"pbp04"	"A2ODG85J9YRCCJ"	4	"lib/images/pbp04/test/pbp04_4-3.jpg"	"right"	"pbp04_4-3.jpg"	590	306	988.5	556	20930	1	"right"	988.5	556	"pbp04"	"all were squares"	"all were circles"
33562	"test-sort"	0	6	221460	"p131293"	"active"	"pbp04"	"A2ODG85J9YRCCJ"	5	"lib/images/pbp04/test/pbp04_5-1.jpg"	"left"	"pbp04_5-1.jpg"	590	306	191.5	556	23306	1	"left"	191.5	556	"pbp04"	"all were squares"	"all were circles"
33562	"test-sort"	0	6	221460	"p131293"	"active"	"pbp04"	"A2ODG85J9YRCCJ"	6	"lib/images/pbp04/test/pbp04_5-2.jpg"	"left"	"pbp04_5-2.jpg"	590	306	191.5	556	25404	1	"left"	191.5	556	"pbp04"	"all were squares"	"all were circles"
33562	"test-sort"	0	6	221460	"p131293"	"active"	"pbp04"	"A2ODG85J9YRCCJ"	7	"lib/images/pbp04/test/pbp04_4-1.jpg"	"left"	"pbp04_4-1.jpg"	590	306	191.5	556	27496	1	"left"	191.5	556	"pbp04"	"all were squares"	"all were circles"
33562	"test-sort"	0	6	221460	"p131293"	"active"	"pbp04"	"A2ODG85J9YRCCJ"	8	"lib/images/pbp04/test/pbp04_5-4.jpg"	"right"	"pbp04_5-4.jpg"	590	306	988.5	556	29549	1	"right"	988.5	556	"pbp04"	"all were squares"	"all were circles"
20651	"survey-text-leftRight"	0	7	244145	"p131293"	"active"	"pbp04"	"A2ODG85J9YRCCJ"	NA	""	""	""	NA	NA	NA	NA	NA	NA	""	NA	NA	""	"all were squares"	"all were circles"
86058	"active-sort"	0	1	160293	"p152687"	"active"	"pbp24"	"A24ZDE3JA5H8XL"	1	"lib/images/pbp34/problem/pbp34_3-2.jpg"	"left"	"pbp34_3-2.jpg"	535	235	125	241	14164	1	"left"	125	241	"pbp34"	"Even"	"Off center"
86058	"active-sort"	0	1	160298	"p152687"	"active"	"pbp24"	"A24ZDE3JA5H8XL"	2	"lib/images/pbp34/problem/pbp34_2-3.jpg"	"right"	"pbp34_2-3.jpg"	425	235	942	241	16741	1	"right"	942	241	"pbp34"	"Even"	"Off center"
86058	"active-sort"	0	1	160299	"p152687"	"active"	"pbp24"	"A24ZDE3JA5H8XL"	3	"lib/images/pbp34/problem/pbp34_1-1.jpg"	"left"	"pbp34_1-1.jpg"	645	235	912	341	20065	0	"right"	125	348	"pbp34"	"Even"	"Off center"
86058	"active-sort"	0	1	160299	"p152687"	"active"	"pbp24"	"A24ZDE3JA5H8XL"	4	"lib/images/pbp34/problem/pbp34_1-2.jpg"	"left"	"pbp34_1-2.jpg"	755	235	237	241	23021	1	"left"	237	241	"pbp34"	"Even"	"Off center"
86058	"active-sort"	0	1	160300	"p152687"	"active"	"pbp24"	"A24ZDE3JA5H8XL"	5	"lib/images/pbp34/problem/pbp34_1-1.jpg"	"left"	"pbp34_1-1.jpg"	645	235	125	348	24882	1	"left"	125	348	"pbp34"	"Even"	"Off center"
86058	"active-sort"	0	1	160300	"p152687"	"active"	"pbp24"	"A24ZDE3JA5H8XL"	6	"lib/images/pbp34/problem/pbp34_1-4.jpg"	"right"	"pbp34_1-4.jpg"	425	345	942	348	28096	1	"right"	942	348	"pbp34"	"Even"	"Off center"
86058	"active-sort"	0	1	160300	"p152687"	"active"	"pbp24"	"A24ZDE3JA5H8XL"	7	"lib/images/pbp34/problem/pbp34_3-1.jpg"	"left"	"pbp34_3-1.jpg"	535	345	237	348	31522	1	"left"	237	348	"pbp34"	"Even"	"Off center"
86058	"active-sort"	0	1	160300	"p152687"	"active"	"pbp24"	"A24ZDE3JA5H8XL"	8	"lib/images/pbp34/problem/pbp34_2-4.jpg"	"right"	"pbp34_2-4.jpg"	645	455	112	465	41700	0	"left"	1054	455	"pbp34"	"Even"	"Off center"
86058	"active-sort"	0	1	160301	"p152687"	"active"	"pbp24"	"A24ZDE3JA5H8XL"	9	"lib/images/pbp34/problem/pbp34_2-1.jpg"	"left"	"pbp34_2-1.jpg"	645	345	237	455	52946	1	"left"	237	455	"pbp34"	"Even"	"Off center"
86058	"active-sort"	0	1	160301	"p152687"	"active"	"pbp24"	"A24ZDE3JA5H8XL"	10	"lib/images/pbp34/problem/pbp34_2-4.jpg"	"right"	"pbp34_2-4.jpg"	645	455	109	455	57259	0	"left"	1054	455	"pbp34"	"Even"	"Off center"
86058	"active-sort"	0	1	160301	"p152687"	"active"	"pbp24"	"A24ZDE3JA5H8XL"	11	"lib/images/pbp34/problem/pbp34_1-3.jpg"	"right"	"pbp34_1-3.jpg"	755	345	942	455	67186	1	"right"	942	455	"pbp34"	"Even"	"Off center"
86058	"active-sort"	0	1	160302	"p152687"	"active"	"pbp24"	"A24ZDE3JA5H8XL"	12	"lib/images/pbp34/problem/pbp34_2-2.jpg"	"left"	"pbp34_2-2.jpg"	755	455	1039	239	70062	0	"right"	125	455	"pbp34"	"Even"	"Off center"
86058	"active-sort"	0	1	160302	"p152687"	"active"	"pbp24"	"A24ZDE3JA5H8XL"	13	"lib/images/pbp34/problem/pbp34_2-2.jpg"	"left"	"pbp34_2-2.jpg"	755	455	125	455	72827	1	"left"	125	455	"pbp34"	"Even"	"Off center"
86058	"active-sort"	0	1	160302	"p152687"	"active"	"pbp24"	"A24ZDE3JA5H8XL"	14	"lib/images/pbp34/problem/pbp34_2-4.jpg"	"right"	"pbp34_2-4.jpg"	645	455	1054	455	78830	1	"right"	1054	455	"pbp34"	"Even"	"Off center"
86058	"active-sort"	0	1	160303	"p152687"	"active"	"pbp24"	"A24ZDE3JA5H8XL"	15	"lib/images/pbp34/problem/pbp34_3-4.jpg"	"right"	"pbp34_3-4.jpg"	535	455	1054	348	80569	1	"right"	1054	348	"pbp34"	"Even"	"Off center"
86058	"active-sort"	0	1	160303	"p152687"	"active"	"pbp24"	"A24ZDE3JA5H8XL"	16	"lib/images/pbp34/problem/pbp34_3-3.jpg"	"right"	"pbp34_3-3.jpg"	425	455	1054	241	83039	1	"right"	1054	241	"pbp34"	"Even"	"Off center"
147241	"active-sort"	0	3	315493	"p152687"	"active"	"pbp24"	"A24ZDE3JA5H8XL"	1	"lib/images/pbp24/problem/pbp24_1-3.jpg"	"right"	"pbp24_1-3.jpg"	425	345	942	241	20772	1	"right"	942	241	"pbp24"	"Even"	"Off center"
147241	"active-sort"	0	3	315495	"p152687"	"active"	"pbp24"	"A24ZDE3JA5H8XL"	2	"lib/images/pbp24/problem/pbp24_2-4.jpg"	"right"	"pbp24_2-4.jpg"	645	455	942	348	27208	1	"right"	942	348	"pbp24"	"Even"	"Off center"
147241	"active-sort"	0	3	315496	"p152687"	"active"	"pbp24"	"A24ZDE3JA5H8XL"	3	"lib/images/pbp24/problem/pbp24_3-1.jpg"	"left"	"pbp24_3-1.jpg"	425	455	971	478	47118	0	"right"	237	455	"pbp24"	"Even"	"Off center"
147241	"active-sort"	0	3	315496	"p152687"	"active"	"pbp24"	"A24ZDE3JA5H8XL"	4	"lib/images/pbp24/problem/pbp24_3-3.jpg"	"right"	"pbp24_3-3.jpg"	755	235	260	262	53392	0	"left"	1054	348	"pbp24"	"Even"	"Off center"
147241	"active-sort"	0	3	315497	"p152687"	"active"	"pbp24"	"A24ZDE3JA5H8XL"	5	"lib/images/pbp24/problem/pbp24_3-1.jpg"	"left"	"pbp24_3-1.jpg"	425	455	237	455	57682	1	"left"	237	455	"pbp24"	"Even"	"Off center"
147241	"active-sort"	0	3	315498	"p152687"	"active"	"pbp24"	"A24ZDE3JA5H8XL"	6	"lib/images/pbp24/problem/pbp24_3-3.jpg"	"right"	"pbp24_3-3.jpg"	755	235	228	359	59263	0	"left"	1054	348	"pbp24"	"Even"	"Off center"
147241	"active-sort"	0	3	315498	"p152687"	"active"	"pbp24"	"A24ZDE3JA5H8XL"	7	"lib/images/pbp24/problem/pbp24_1-1.jpg"	"left"	"pbp24_1-1.jpg"	535	235	237	348	70131	1	"left"	237	348	"pbp24"	"Even"	"Off center"
147241	"active-sort"	0	3	315499	"p152687"	"active"	"pbp24"	"A24ZDE3JA5H8XL"	8	"lib/images/pbp24/problem/pbp24_1-4.jpg"	"right"	"pbp24_1-4.jpg"	425	235	236	227	72008	0	"left"	942	455	"pbp24"	"Even"	"Off center"
147241	"active-sort"	0	3	315499	"p152687"	"active"	"pbp24"	"A24ZDE3JA5H8XL"	9	"lib/images/pbp24/problem/pbp24_1-4.jpg"	"right"	"pbp24_1-4.jpg"	425	235	942	455	74337	1	"right"	942	455	"pbp24"	"Even"	"Off center"
147241	"active-sort"	0	3	315500	"p152687"	"active"	"pbp24"	"A24ZDE3JA5H8XL"	10	"lib/images/pbp24/problem/pbp24_3-4.jpg"	"right"	"pbp24_3-4.jpg"	535	345	1054	241	95690	1	"right"	1054	241	"pbp24"	"Even"	"Off center"
147241	"active-sort"	0	3	315500	"p152687"	"active"	"pbp24"	"A24ZDE3JA5H8XL"	11	"lib/images/pbp24/problem/pbp24_3-3.jpg"	"right"	"pbp24_3-3.jpg"	755	235	237	249	100745	0	"left"	1054	348	"pbp24"	"Even"	"Off center"
147241	"active-sort"	0	3	315501	"p152687"	"active"	"pbp24"	"A24ZDE3JA5H8XL"	12	"lib/images/pbp24/problem/pbp24_3-3.jpg"	"right"	"pbp24_3-3.jpg"	755	235	1054	348	103522	1	"right"	1054	348	"pbp24"	"Even"	"Off center"
147241	"active-sort"	0	3	315501	"p152687"	"active"	"pbp24"	"A24ZDE3JA5H8XL"	13	"lib/images/pbp24/problem/pbp24_3-2.jpg"	"left"	"pbp24_3-2.jpg"	645	345	237	241	117340	1	"left"	237	241	"pbp24"	"Even"	"Off center"
147241	"active-sort"	0	3	315502	"p152687"	"active"	"pbp24"	"A24ZDE3JA5H8XL"	14	"lib/images/pbp24/problem/pbp24_2-2.jpg"	"left"	"pbp24_2-2.jpg"	755	345	1079	465	129931	0	"right"	125	241	"pbp24"	"Even"	"Off center"
147241	"active-sort"	0	3	315502	"p152687"	"active"	"pbp24"	"A24ZDE3JA5H8XL"	15	"lib/images/pbp24/problem/pbp24_2-2.jpg"	"left"	"pbp24_2-2.jpg"	755	345	125	241	134376	1	"left"	125	241	"pbp24"	"Even"	"Off center"
147241	"active-sort"	0	3	315503	"p152687"	"active"	"pbp24"	"A24ZDE3JA5H8XL"	16	"lib/images/pbp24/problem/pbp24_1-2.jpg"	"left"	"pbp24_1-2.jpg"	535	455	125	348	137879	1	"left"	125	348	"pbp24"	"Even"	"Off center"
147241	"active-sort"	0	3	315503	"p152687"	"active"	"pbp24"	"A24ZDE3JA5H8XL"	17	"lib/images/pbp24/problem/pbp24_2-1.jpg"	"left"	"pbp24_2-1.jpg"	755	455	125	455	140220	1	"left"	125	455	"pbp24"	"Even"	"Off center"
147241	"active-sort"	0	3	315504	"p152687"	"active"	"pbp24"	"A24ZDE3JA5H8XL"	18	"lib/images/pbp24/problem/pbp24_2-3.jpg"	"right"	"pbp24_2-3.jpg"	645	235	1054	455	144222	1	"right"	1054	455	"pbp24"	"Even"	"Off center"
75389	"test-sort"	0	6	401668	"p152687"	"active"	"pbp24"	"A24ZDE3JA5H8XL"	1	"lib/images/pbp24/test/pbp24_4-4.jpg"	"right"	"pbp24_4-4.jpg"	590	306	988.5	556	17506	1	"right"	988.5	556	"pbp24"	"Even"	"Off center"
75389	"test-sort"	0	6	401669	"p152687"	"active"	"pbp24"	"A24ZDE3JA5H8XL"	2	"lib/images/pbp24/test/pbp24_5-3.jpg"	"right"	"pbp24_5-3.jpg"	590	306	191.5	556	24208	0	"left"	191.5	556	"pbp24"	"Even"	"Off center"
75389	"test-sort"	0	6	401669	"p152687"	"active"	"pbp24"	"A24ZDE3JA5H8XL"	3	"lib/images/pbp24/test/pbp24_5-2.jpg"	"left"	"pbp24_5-2.jpg"	590	306	191.5	556	35173	1	"left"	191.5	556	"pbp24"	"Even"	"Off center"
75389	"test-sort"	0	6	401669	"p152687"	"active"	"pbp24"	"A24ZDE3JA5H8XL"	4	"lib/images/pbp24/test/pbp24_5-4.jpg"	"right"	"pbp24_5-4.jpg"	590	306	191.5	556	38258	0	"left"	191.5	556	"pbp24"	"Even"	"Off center"
75389	"test-sort"	0	6	401669	"p152687"	"active"	"pbp24"	"A24ZDE3JA5H8XL"	5	"lib/images/pbp24/test/pbp24_4-3.jpg"	"right"	"pbp24_4-3.jpg"	590	306	191.5	556	61350	0	"left"	191.5	556	"pbp24"	"Even"	"Off center"
75389	"test-sort"	0	6	401670	"p152687"	"active"	"pbp24"	"A24ZDE3JA5H8XL"	6	"lib/images/pbp24/test/pbp24_4-2.jpg"	"left"	"pbp24_4-2.jpg"	590	306	988.5	556	65730	0	"right"	988.5	556	"pbp24"	"Even"	"Off center"
75389	"test-sort"	0	6	401670	"p152687"	"active"	"pbp24"	"A24ZDE3JA5H8XL"	7	"lib/images/pbp24/test/pbp24_4-1.jpg"	"left"	"pbp24_4-1.jpg"	590	306	988.5	556	68687	0	"right"	988.5	556	"pbp24"	"Even"	"Off center"
75389	"test-sort"	0	6	401670	"p152687"	"active"	"pbp24"	"A24ZDE3JA5H8XL"	8	"lib/images/pbp24/test/pbp24_5-1.jpg"	"left"	"pbp24_5-1.jpg"	590	306	988.5	556	71387	0	"right"	988.5	556	"pbp24"	"Even"	"Off center"
43124	"survey-text-leftRight"	0	7	446847	"p152687"	"active"	"pbp24"	"A24ZDE3JA5H8XL"	NA	""	""	""	NA	NA	NA	NA	NA	NA	""	NA	NA	""	"Even"	"Off center"
38513	"passive-sort"	0	1	72988	"p158982"	"passive"	"pbp24"	"A2NI99CLB8OQ1X"	1	"lib/images/pbp34/problem/pbp34_2-2.jpg"	"left"	"pbp34_2-2.jpg"	425	235	125	241	3768	1	"left"	125	241	"pbp34"	"I saw some of the shapes were stacked"	"I saw more floating shapes"
38513	"passive-sort"	0	1	72989	"p158982"	"passive"	"pbp24"	"A2NI99CLB8OQ1X"	2	"lib/images/pbp34/problem/pbp34_1-4.jpg"	"right"	"pbp34_1-4.jpg"	535	235	942	241	6703	1	"right"	942	241	"pbp34"	"I saw some of the shapes were stacked"	"I saw more floating shapes"
38513	"passive-sort"	0	1	72989	"p158982"	"passive"	"pbp24"	"A2NI99CLB8OQ1X"	3	"lib/images/pbp34/problem/pbp34_3-3.jpg"	"right"	"pbp34_3-3.jpg"	645	235	262	244	9012	0	"left"	1054	241	"pbp34"	"I saw some of the shapes were stacked"	"I saw more floating shapes"
38513	"passive-sort"	0	1	72989	"p158982"	"passive"	"pbp24"	"A2NI99CLB8OQ1X"	4	"lib/images/pbp34/problem/pbp34_3-3.jpg"	"right"	"pbp34_3-3.jpg"	645	235	1054	241	10788	1	"right"	1054	241	"pbp34"	"I saw some of the shapes were stacked"	"I saw more floating shapes"
38513	"passive-sort"	0	1	72990	"p158982"	"passive"	"pbp24"	"A2NI99CLB8OQ1X"	5	"lib/images/pbp34/problem/pbp34_1-1.jpg"	"left"	"pbp34_1-1.jpg"	755	345	237	241	13081	1	"left"	237	241	"pbp34"	"I saw some of the shapes were stacked"	"I saw more floating shapes"
38513	"passive-sort"	0	1	72990	"p158982"	"passive"	"pbp24"	"A2NI99CLB8OQ1X"	6	"lib/images/pbp34/problem/pbp34_3-1.jpg"	"left"	"pbp34_3-1.jpg"	535	455	125	348	15651	1	"left"	125	348	"pbp34"	"I saw some of the shapes were stacked"	"I saw more floating shapes"
38513	"passive-sort"	0	1	72990	"p158982"	"passive"	"pbp24"	"A2NI99CLB8OQ1X"	7	"lib/images/pbp34/problem/pbp34_2-1.jpg"	"left"	"pbp34_2-1.jpg"	755	235	237	348	17981	1	"left"	237	348	"pbp34"	"I saw some of the shapes were stacked"	"I saw more floating shapes"
38513	"passive-sort"	0	1	72990	"p158982"	"passive"	"pbp24"	"A2NI99CLB8OQ1X"	8	"lib/images/pbp34/problem/pbp34_1-2.jpg"	"left"	"pbp34_1-2.jpg"	755	455	981	342	19661	0	"right"	125	455	"pbp34"	"I saw some of the shapes were stacked"	"I saw more floating shapes"
38513	"passive-sort"	0	1	72990	"p158982"	"passive"	"pbp24"	"A2NI99CLB8OQ1X"	9	"lib/images/pbp34/problem/pbp34_1-2.jpg"	"left"	"pbp34_1-2.jpg"	755	455	125	455	22214	1	"left"	125	455	"pbp34"	"I saw some of the shapes were stacked"	"I saw more floating shapes"
38513	"passive-sort"	0	1	72990	"p158982"	"passive"	"pbp24"	"A2NI99CLB8OQ1X"	10	"lib/images/pbp34/problem/pbp34_1-3.jpg"	"right"	"pbp34_1-3.jpg"	425	455	942	348	24030	1	"right"	942	348	"pbp34"	"I saw some of the shapes were stacked"	"I saw more floating shapes"
38513	"passive-sort"	0	1	72990	"p158982"	"passive"	"pbp24"	"A2NI99CLB8OQ1X"	11	"lib/images/pbp34/problem/pbp34_2-3.jpg"	"right"	"pbp34_2-3.jpg"	645	455	1054	348	26237	1	"right"	1054	348	"pbp34"	"I saw some of the shapes were stacked"	"I saw more floating shapes"
38513	"passive-sort"	0	1	72990	"p158982"	"passive"	"pbp24"	"A2NI99CLB8OQ1X"	12	"lib/images/pbp34/problem/pbp34_3-2.jpg"	"left"	"pbp34_3-2.jpg"	535	345	237	455	28219	1	"left"	237	455	"pbp34"	"I saw some of the shapes were stacked"	"I saw more floating shapes"
38513	"passive-sort"	0	1	72990	"p158982"	"passive"	"pbp24"	"A2NI99CLB8OQ1X"	13	"lib/images/pbp34/problem/pbp34_2-4.jpg"	"right"	"pbp34_2-4.jpg"	645	345	942	455	32302	1	"right"	942	455	"pbp34"	"I saw some of the shapes were stacked"	"I saw more floating shapes"
38513	"passive-sort"	0	1	72991	"p158982"	"passive"	"pbp24"	"A2NI99CLB8OQ1X"	14	"lib/images/pbp34/problem/pbp34_3-4.jpg"	"right"	"pbp34_3-4.jpg"	425	345	1054	455	35505	1	"right"	1054	455	"pbp34"	"I saw some of the shapes were stacked"	"I saw more floating shapes"
33805	"passive-sort"	0	3	113063	"p158982"	"passive"	"pbp24"	"A2NI99CLB8OQ1X"	1	"lib/images/pbp24/problem/pbp24_1-1.jpg"	"left"	"pbp24_1-1.jpg"	535	235	125	241	2548	1	"left"	125	241	"pbp24"	"I saw some of the shapes were stacked"	"I saw more floating shapes"
33805	"passive-sort"	0	3	113063	"p158982"	"passive"	"pbp24"	"A2NI99CLB8OQ1X"	2	"lib/images/pbp24/problem/pbp24_2-3.jpg"	"right"	"pbp24_2-3.jpg"	535	455	942	241	5218	1	"right"	942	241	"pbp24"	"I saw some of the shapes were stacked"	"I saw more floating shapes"
33805	"passive-sort"	0	3	113064	"p158982"	"passive"	"pbp24"	"A2NI99CLB8OQ1X"	3	"lib/images/pbp24/problem/pbp24_3-4.jpg"	"right"	"pbp24_3-4.jpg"	755	235	1054	241	7586	1	"right"	1054	241	"pbp24"	"I saw some of the shapes were stacked"	"I saw more floating shapes"
33805	"passive-sort"	0	3	113064	"p158982"	"passive"	"pbp24"	"A2NI99CLB8OQ1X"	4	"lib/images/pbp24/problem/pbp24_1-2.jpg"	"left"	"pbp24_1-2.jpg"	425	345	237	241	9668	1	"left"	237	241	"pbp24"	"I saw some of the shapes were stacked"	"I saw more floating shapes"
33805	"passive-sort"	0	3	113064	"p158982"	"passive"	"pbp24"	"A2NI99CLB8OQ1X"	5	"lib/images/pbp24/problem/pbp24_2-1.jpg"	"left"	"pbp24_2-1.jpg"	425	235	125	348	11357	1	"left"	125	348	"pbp24"	"I saw some of the shapes were stacked"	"I saw more floating shapes"
33805	"passive-sort"	0	3	113064	"p158982"	"passive"	"pbp24"	"A2NI99CLB8OQ1X"	6	"lib/images/pbp24/problem/pbp24_1-3.jpg"	"right"	"pbp24_1-3.jpg"	755	345	942	348	13697	1	"right"	942	348	"pbp24"	"I saw some of the shapes were stacked"	"I saw more floating shapes"
33805	"passive-sort"	0	3	113064	"p158982"	"passive"	"pbp24"	"A2NI99CLB8OQ1X"	7	"lib/images/pbp24/problem/pbp24_3-3.jpg"	"right"	"pbp24_3-3.jpg"	535	345	262	333	15294	0	"left"	942	455	"pbp24"	"I saw some of the shapes were stacked"	"I saw more floating shapes"
33805	"passive-sort"	0	3	113064	"p158982"	"passive"	"pbp24"	"A2NI99CLB8OQ1X"	8	"lib/images/pbp24/problem/pbp24_3-3.jpg"	"right"	"pbp24_3-3.jpg"	535	345	942	455	17044	1	"right"	942	455	"pbp24"	"I saw some of the shapes were stacked"	"I saw more floating shapes"
33805	"passive-sort"	0	3	113064	"p158982"	"passive"	"pbp24"	"A2NI99CLB8OQ1X"	9	"lib/images/pbp24/problem/pbp24_2-4.jpg"	"right"	"pbp24_2-4.jpg"	755	455	1054	348	19010	1	"right"	1054	348	"pbp24"	"I saw some of the shapes were stacked"	"I saw more floating shapes"
33805	"passive-sort"	0	3	113064	"p158982"	"passive"	"pbp24"	"A2NI99CLB8OQ1X"	10	"lib/images/pbp24/problem/pbp24_1-4.jpg"	"right"	"pbp24_1-4.jpg"	645	235	273	329	21249	0	"left"	1054	455	"pbp24"	"I saw some of the shapes were stacked"	"I saw more floating shapes"
33805	"passive-sort"	0	3	113064	"p158982"	"passive"	"pbp24"	"A2NI99CLB8OQ1X"	11	"lib/images/pbp24/problem/pbp24_1-4.jpg"	"right"	"pbp24_1-4.jpg"	645	235	1054	455	23035	1	"right"	1054	455	"pbp24"	"I saw some of the shapes were stacked"	"I saw more floating shapes"
33805	"passive-sort"	0	3	113064	"p158982"	"passive"	"pbp24"	"A2NI99CLB8OQ1X"	12	"lib/images/pbp24/problem/pbp24_3-2.jpg"	"left"	"pbp24_3-2.jpg"	645	345	237	348	27476	1	"left"	237	348	"pbp24"	"I saw some of the shapes were stacked"	"I saw more floating shapes"
33805	"passive-sort"	0	3	113064	"p158982"	"passive"	"pbp24"	"A2NI99CLB8OQ1X"	13	"lib/images/pbp24/problem/pbp24_2-2.jpg"	"left"	"pbp24_2-2.jpg"	425	455	237	455	28579	1	"left"	237	455	"pbp24"	"I saw some of the shapes were stacked"	"I saw more floating shapes"
33805	"passive-sort"	0	3	113065	"p158982"	"passive"	"pbp24"	"A2NI99CLB8OQ1X"	14	"lib/images/pbp24/problem/pbp24_3-1.jpg"	"left"	"pbp24_3-1.jpg"	645	455	125	455	30799	1	"left"	125	455	"pbp24"	"I saw some of the shapes were stacked"	"I saw more floating shapes"
24830	"test-sort"	0	6	145764	"p158982"	"passive"	"pbp24"	"A2NI99CLB8OQ1X"	1	"lib/images/pbp24/test/pbp24_5-1.jpg"	"left"	"pbp24_5-1.jpg"	590	306	191.5	556	3630	1	"left"	191.5	556	"pbp24"	"I saw some of the shapes were stacked"	"I saw more floating shapes"
24830	"test-sort"	0	6	145764	"p158982"	"passive"	"pbp24"	"A2NI99CLB8OQ1X"	2	"lib/images/pbp24/test/pbp24_4-1.jpg"	"left"	"pbp24_4-1.jpg"	590	306	988.5	556	5981	0	"right"	988.5	556	"pbp24"	"I saw some of the shapes were stacked"	"I saw more floating shapes"
24830	"test-sort"	0	6	145764	"p158982"	"passive"	"pbp24"	"A2NI99CLB8OQ1X"	3	"lib/images/pbp24/test/pbp24_4-2.jpg"	"left"	"pbp24_4-2.jpg"	590	306	191.5	556	10267	1	"left"	191.5	556	"pbp24"	"I saw some of the shapes were stacked"	"I saw more floating shapes"
24830	"test-sort"	0	6	145764	"p158982"	"passive"	"pbp24"	"A2NI99CLB8OQ1X"	4	"lib/images/pbp24/test/pbp24_4-3.jpg"	"right"	"pbp24_4-3.jpg"	590	306	988.5	556	12478	1	"right"	988.5	556	"pbp24"	"I saw some of the shapes were stacked"	"I saw more floating shapes"
24830	"test-sort"	0	6	145764	"p158982"	"passive"	"pbp24"	"A2NI99CLB8OQ1X"	5	"lib/images/pbp24/test/pbp24_5-2.jpg"	"left"	"pbp24_5-2.jpg"	590	306	191.5	556	14685	1	"left"	191.5	556	"pbp24"	"I saw some of the shapes were stacked"	"I saw more floating shapes"
24830	"test-sort"	0	6	145764	"p158982"	"passive"	"pbp24"	"A2NI99CLB8OQ1X"	6	"lib/images/pbp24/test/pbp24_5-3.jpg"	"right"	"pbp24_5-3.jpg"	590	306	191.5	556	16930	0	"left"	191.5	556	"pbp24"	"I saw some of the shapes were stacked"	"I saw more floating shapes"
24830	"test-sort"	0	6	145764	"p158982"	"passive"	"pbp24"	"A2NI99CLB8OQ1X"	7	"lib/images/pbp24/test/pbp24_5-4.jpg"	"right"	"pbp24_5-4.jpg"	590	306	988.5	556	19014	1	"right"	988.5	556	"pbp24"	"I saw some of the shapes were stacked"	"I saw more floating shapes"
24830	"test-sort"	0	6	145764	"p158982"	"passive"	"pbp24"	"A2NI99CLB8OQ1X"	8	"lib/images/pbp24/test/pbp24_4-4.jpg"	"right"	"pbp24_4-4.jpg"	590	306	988.5	556	20827	1	"right"	988.5	556	"pbp24"	"I saw some of the shapes were stacked"	"I saw more floating shapes"
30133	"survey-text-leftRight"	0	7	177919	"p158982"	"passive"	"pbp24"	"A2NI99CLB8OQ1X"	NA	""	""	""	NA	NA	NA	NA	NA	NA	""	NA	NA	""	"I saw some of the shapes were stacked"	"I saw more floating shapes"
37407	"passive-sort"	0	1	124813	"p163824"	"passive"	"pbp02"	"A1OU4MUPGTBNO0"	1	"lib/images/pbp34/problem/pbp34_3-2.jpg"	"left"	"pbp34_3-2.jpg"	645	345	953	383	9563	0	"right"	237	348	"pbp34"	"One object"	"Two objects"
37407	"passive-sort"	0	1	124813	"p163824"	"passive"	"pbp02"	"A1OU4MUPGTBNO0"	2	"lib/images/pbp34/problem/pbp34_3-2.jpg"	"left"	"pbp34_3-2.jpg"	645	345	237	348	11498	1	"left"	237	348	"pbp34"	"One object"	"Two objects"
37407	"passive-sort"	0	1	124813	"p163824"	"passive"	"pbp02"	"A1OU4MUPGTBNO0"	3	"lib/images/pbp34/problem/pbp34_2-4.jpg"	"right"	"pbp34_2-4.jpg"	755	235	942	241	14026	1	"right"	942	241	"pbp34"	"One object"	"Two objects"
