"rt"	"trial_type"	"trial_index"	"trial_index_global"	"time_elapsed"	"subject"	"condition"	"categoryALoc"	"workerId"	"trialNum"	"firstTrial"	"moveNum"	"src"	"category"	"categoryLoc"	"imageName"	"init_locationsX"	"init_locationsY"	"movesX"	"movesY"	"dropTime"	"dropCorrect"	"dropPosition"	"final_locationsX"	"final_locationsY"	"blockNum"	"responses"	"strategy"	"shapes"	"totalTimeMinutes"	"totalTimeSeconds"	"totalTrialNum"	"FourBlock"	"conditionC"	"imagePaired"
144121	"test-sort"	0	1	161886	"p415544"	"high"	"left"	"A1F1A2FXG1I6ZY"	1	1	1	"lib/images/tl_50_120.jpg"	"T"	"right"	"tl_50_120.jpg"	515	298	108	291	3966	0	"left"	881	348	1	""	"I tried to figure out cues about horizontal line placement to figure out what went where."	"I tried putting the ones with the horizontal line higher on the right."	5.72256666666667	343.354	1	1	0.5	"tl_50_120.jpg"
144121	"test-sort"	0	1	161886	"p415544"	"high"	"left"	"A1F1A2FXG1I6ZY"	1	0	2	"lib/images/tl_50_120.jpg"	"T"	"right"	"tl_50_120.jpg"	515	298	881	348	9183	1	"right"	881	348	1	""	"I tried to figure out cues about horizontal line placement to figure out what went where."	"I tried putting the ones with the horizontal line higher on the right."	5.72256666666667	343.354	1	1	0.5	"tl_50_120.jpg"
144121	"test-sort"	0	1	161886	"p415544"	"high"	"left"	"A1F1A2FXG1I6ZY"	2	1	3	"lib/images/tl_40_150.jpg"	"L"	"left"	"tl_40_150.jpg"	515	298	149	348	12101	1	"left"	149	348	1	""	"I tried to figure out cues about horizontal line placement to figure out what went where."	"I tried putting the ones with the horizontal line higher on the right."	5.72256666666667	343.354	2	1	0.5	"tl_40_150.jpg"
144121	"test-sort"	0	1	161886	"p415544"	"high"	"left"	"A1F1A2FXG1I6ZY"	3	1	4	"lib/images/tl_40_90.jpg"	"T"	"right"	"tl_40_90.jpg"	515	298	881	348	14675	1	"right"	881	348	1	""	"I tried to figure out cues about horizontal line placement to figure out what went where."	"I tried putting the ones with the horizontal line higher on the right."	5.72256666666667	343.354	3	1	0.5	"tl_40_90.jpg"
144121	"test-sort"	0	1	161886	"p415544"	"high"	"left"	"A1F1A2FXG1I6ZY"	4	1	5	"lib/images/tl_0_30.jpg"	"L"	"left"	"tl_0_30.jpg"	515	298	149	348	17286	1	"left"	149	348	1	""	"I tried to figure out cues about horizontal line placement to figure out what went where."	"I tried putting the ones with the horizontal line higher on the right."	5.72256666666667	343.354	4	1	0.5	"tl_0_30.jpg"
144121	"test-sort"	0	1	161886	"p415544"	"high"	"left"	"A1F1A2FXG1I6ZY"	5	1	6	"lib/images/tl_50_0.jpg"	"T"	"right"	"tl_50_0.jpg"	515	298	168	326	19695	0	"left"	881	348	1	""	"I tried to figure out cues about horizontal line placement to figure out what went where."	"I tried putting the ones with the horizontal line higher on the right."	5.72256666666667	343.354	5	1	0.5	"tl_50_0.jpg"
144121	"test-sort"	0	1	161886	"p415544"	"high"	"left"	"A1F1A2FXG1I6ZY"	5	0	7	"lib/images/tl_50_0.jpg"	"T"	"right"	"tl_50_0.jpg"	515	298	881	348	24806	1	"right"	881	348	1	""	"I tried to figure out cues about horizontal line placement to figure out what went where."	"I tried putting the ones with the horizontal line higher on the right."	5.72256666666667	343.354	5	1	0.5	"tl_50_0.jpg"
144121	"test-sort"	0	1	161886	"p415544"	"high"	"left"	"A1F1A2FXG1I6ZY"	6	1	8	"lib/images/tl_40_60.jpg"	"T"	"right"	"tl_40_60.jpg"	515	298	192	309	27429	0	"left"	881	348	1	""	"I tried to figure out cues about horizontal line placement to figure out what went where."	"I tried putting the ones with the horizontal line higher on the right."	5.72256666666667	343.354	6	1	0.5	"tl_40_60.jpg"
144121	"test-sort"	0	1	161886	"p415544"	"high"	"left"	"A1F1A2FXG1I6ZY"	6	0	9	"lib/images/tl_40_60.jpg"	"T"	"right"	"tl_40_60.jpg"	515	298	881	348	32465	1	"right"	881	348	1	""	"I tried to figure out cues about horizontal line placement to figure out what went where."	"I tried putting the ones with the horizontal line higher on the right."	5.72256666666667	343.354	6	1	0.5	"tl_40_60.jpg"
144121	"test-sort"	0	1	161886	"p415544"	"high"	"left"	"A1F1A2FXG1I6ZY"	7	1	10	"lib/images/tl_10_90.jpg"	"L"	"left"	"tl_10_90.jpg"	515	298	816	319	35346	0	"right"	149	348	1	""	"I tried to figure out cues about horizontal line placement to figure out what went where."	"I tried putting the ones with the horizontal line higher on the right."	5.72256666666667	343.354	7	1	0.5	"tl_10_90.jpg"
144121	"test-sort"	0	1	161886	"p415544"	"high"	"left"	"A1F1A2FXG1I6ZY"	7	0	11	"lib/images/tl_10_90.jpg"	"L"	"left"	"tl_10_90.jpg"	515	298	149	348	40325	1	"left"	149	348	1	""	"I tried to figure out cues about horizontal line placement to figure out what went where."	"I tried putting the ones with the horizontal line higher on the right."	5.72256666666667	343.354	7	1	0.5	"tl_10_90.jpg"
144121	"test-sort"	0	1	161886	"p415544"	"high"	"left"	"A1F1A2FXG1I6ZY"	8	1	12	"lib/images/tl_20_150.jpg"	"L"	"left"	"tl_20_150.jpg"	515	298	149	348	42743	1	"left"	149	348	1	""	"I tried to figure out cues about horizontal line placement to figure out what went where."	"I tried putting the ones with the horizontal line higher on the right."	5.72256666666667	343.354	8	1	0.5	"tl_20_150.jpg"
144121	"test-sort"	0	1	161886	"p415544"	"high"	"left"	"A1F1A2FXG1I6ZY"	9	1	13	"lib/images/tl_10_150.jpg"	"L"	"left"	"tl_10_150.jpg"	515	298	149	348	45189	1	"left"	149	348	1	""	"I tried to figure out cues about horizontal line placement to figure out what went where."	"I tried putting the ones with the horizontal line higher on the right."	5.72256666666667	343.354	9	1	0.5	"tl_10_150.jpg"
144121	"test-sort"	0	1	161886	"p415544"	"high"	"left"	"A1F1A2FXG1I6ZY"	10	1	14	"lib/images/tl_0_120.jpg"	"L"	"left"	"tl_0_120.jpg"	515	298	149	348	47692	1	"left"	149	348	1	""	"I tried to figure out cues about horizontal line placement to figure out what went where."	"I tried putting the ones with the horizontal line higher on the right."	5.72256666666667	343.354	10	1	0.5	"tl_0_120.jpg"
144121	"test-sort"	0	1	161886	"p415544"	"high"	"left"	"A1F1A2FXG1I6ZY"	11	1	15	"lib/images/tl_50_90.jpg"	"T"	"right"	"tl_50_90.jpg"	515	298	881	348	50273	1	"right"	881	348	1	""	"I tried to figure out cues about horizontal line placement to figure out what went where."	"I tried putting the ones with the horizontal line higher on the right."	5.72256666666667	343.354	11	1	0.5	"tl_50_90.jpg"
144121	"test-sort"	0	1	161886	"p415544"	"high"	"left"	"A1F1A2FXG1I6ZY"	12	1	16	"lib/images/tl_40_0.jpg"	"T"	"right"	"tl_40_0.jpg"	515	298	159	348	52750	0	"left"	881	348	1	""	"I tried to figure out cues about horizontal line placement to figure out what went where."	"I tried putting the ones with the horizontal line higher on the right."	5.72256666666667	343.354	12	1	0.5	"tl_40_0.jpg"
144121	"test-sort"	0	1	161886	"p415544"	"high"	"left"	"A1F1A2FXG1I6ZY"	12	0	17	"lib/images/tl_40_0.jpg"	"T"	"right"	"tl_40_0.jpg"	515	298	881	348	57692	1	"right"	881	348	1	""	"I tried to figure out cues about horizontal line placement to figure out what went where."	"I tried putting the ones with the horizontal line higher on the right."	5.72256666666667	343.354	12	1	0.5	"tl_40_0.jpg"
144121	"test-sort"	0	1	161886	"p415544"	"high"	"left"	"A1F1A2FXG1I6ZY"	13	1	18	"lib/images/tl_10_120.jpg"	"L"	"left"	"tl_10_120.jpg"	515	298	149	348	60109	1	"left"	149	348	1	""	"I tried to figure out cues about horizontal line placement to figure out what went where."	"I tried putting the ones with the horizontal line higher on the right."	5.72256666666667	343.354	13	1	0.5	"tl_10_120.jpg"
144121	"test-sort"	0	1	161886	"p415544"	"high"	"left"	"A1F1A2FXG1I6ZY"	14	1	19	"lib/images/tl_50_30.jpg"	"T"	"right"	"tl_50_30.jpg"	515	298	159	333	62462	0	"left"	881	348	1	""	"I tried to figure out cues about horizontal line placement to figure out what went where."	"I tried putting the ones with the horizontal line higher on the right."	5.72256666666667	343.354	14	1	0.5	"tl_50_30.jpg"
144121	"test-sort"	0	1	161886	"p415544"	"high"	"left"	"A1F1A2FXG1I6ZY"	14	0	20	"lib/images/tl_50_30.jpg"	"T"	"right"	"tl_50_30.jpg"	515	298	881	348	67546	1	"right"	881	348	1	""	"I tried to figure out cues about horizontal line placement to figure out what went where."	"I tried putting the ones with the horizontal line higher on the right."	5.72256666666667	343.354	14	1	0.5	"tl_50_30.jpg"
144121	"test-sort"	0	1	161886	"p415544"	"high"	"left"	"A1F1A2FXG1I6ZY"	15	1	21	"lib/images/tl_20_30.jpg"	"T"	"right"	"tl_20_30.jpg"	515	298	881	348	69797	1	"right"	881	348	1	""	"I tried to figure out cues about horizontal line placement to figure out what went where."	"I tried putting the ones with the horizontal line higher on the right."	5.72256666666667	343.354	15	1	0.5	"tl_20_30.jpg"
144121	"test-sort"	0	1	161886	"p415544"	"high"	"left"	"A1F1A2FXG1I6ZY"	16	1	22	"lib/images/tl_0_60.jpg"	"L"	"left"	"tl_0_60.jpg"	515	298	149	348	72228	1	"left"	149	348	1	""	"I tried to figure out cues about horizontal line placement to figure out what went where."	"I tried putting the ones with the horizontal line higher on the right."	5.72256666666667	343.354	16	2	0.5	"tl_0_60.jpg"
144121	"test-sort"	0	1	161886	"p415544"	"high"	"left"	"A1F1A2FXG1I6ZY"	17	1	23	"lib/images/tl_20_0.jpg"	"T"	"right"	"tl_20_0.jpg"	515	298	881	348	74880	1	"right"	881	348	1	""	"I tried to figure out cues about horizontal line placement to figure out what went where."	"I tried putting the ones with the horizontal line higher on the right."	5.72256666666667	343.354	17	2	0.5	"tl_20_0.jpg"
144121	"test-sort"	0	1	161886	"p415544"	"high"	"left"	"A1F1A2FXG1I6ZY"	18	1	24	"lib/images/tl_10_60.jpg"	"L"	"left"	"tl_10_60.jpg"	515	298	149	348	77226	1	"left"	149	348	1	""	"I tried to figure out cues about horizontal line placement to figure out what went where."	"I tried putting the ones with the horizontal line higher on the right."	5.72256666666667	343.354	18	2	0.5	"tl_10_60.jpg"
144121	"test-sort"	0	1	161886	"p415544"	"high"	"left"	"A1F1A2FXG1I6ZY"	19	1	25	"lib/images/tl_50_60.jpg"	"T"	"right"	"tl_50_60.jpg"	515	298	208	336	80514	0	"left"	881	348	1	""	"I tried to figure out cues about horizontal line placement to figure out what went where."	"I tried putting the ones with the horizontal line higher on the right."	5.72256666666667	343.354	19	2	0.5	"tl_50_60.jpg"
144121	"test-sort"	0	1	161886	"p415544"	"high"	"left"	"A1F1A2FXG1I6ZY"	19	0	26	"lib/images/tl_50_60.jpg"	"T"	"right"	"tl_50_60.jpg"	515	298	881	348	85411	1	"right"	881	348	1	""	"I tried to figure out cues about horizontal line placement to figure out what went where."	"I tried putting the ones with the horizontal line higher on the right."	5.72256666666667	343.354	19	2	0.5	"tl_50_60.jpg"
144121	"test-sort"	0	1	161886	"p415544"	"high"	"left"	"A1F1A2FXG1I6ZY"	20	1	27	"lib/images/tl_20_90.jpg"	"L"	"left"	"tl_20_90.jpg"	515	298	805	330	88365	0	"right"	149	348	1	""	"I tried to figure out cues about horizontal line placement to figure out what went where."	"I tried putting the ones with the horizontal line higher on the right."	5.72256666666667	343.354	20	2	0.5	"tl_20_90.jpg"
144121	"test-sort"	0	1	161886	"p415544"	"high"	"left"	"A1F1A2FXG1I6ZY"	20	0	28	"lib/images/tl_20_90.jpg"	"L"	"left"	"tl_20_90.jpg"	515	298	149	348	94479	1	"left"	149	348	1	""	"I tried to figure out cues about horizontal line placement to figure out what went where."	"I tried putting the ones with the horizontal line higher on the right."	5.72256666666667	343.354	20	2	0.5	"tl_20_90.jpg"
144121	"test-sort"	0	1	161886	"p415544"	"high"	"left"	"A1F1A2FXG1I6ZY"	21	1	29	"lib/images/tl_10_0.jpg"	"T"	"right"	"tl_10_0.jpg"	515	298	881	348	97272	1	"right"	881	348	1	""	"I tried to figure out cues about horizontal line placement to figure out what went where."	"I tried putting the ones with the horizontal line higher on the right."	5.72256666666667	343.354	21	2	0.5	"tl_10_0.jpg"
144121	"test-sort"	0	1	161886	"p415544"	"high"	"left"	"A1F1A2FXG1I6ZY"	22	1	30	"lib/images/tl_30_60.jpg"	"T"	"right"	"tl_30_60.jpg"	515	298	122	306	99791	0	"left"	881	348	1	""	"I tried to figure out cues about horizontal line placement to figure out what went where."	"I tried putting the ones with the horizontal line higher on the right."	5.72256666666667	343.354	22	2	0.5	"tl_30_60.jpg"
144121	"test-sort"	0	1	161886	"p415544"	"high"	"left"	"A1F1A2FXG1I6ZY"	22	0	31	"lib/images/tl_30_60.jpg"	"T"	"right"	"tl_30_60.jpg"	515	298	881	348	104670	1	"right"	881	348	1	""	"I tried to figure out cues about horizontal line placement to figure out what went where."	"I tried putting the ones with the horizontal line higher on the right."	5.72256666666667	343.354	22	2	0.5	"tl_30_60.jpg"
144121	"test-sort"	0	1	161886	"p415544"	"high"	"left"	"A1F1A2FXG1I6ZY"	23	1	32	"lib/images/tl_0_90.jpg"	"L"	"left"	"tl_0_90.jpg"	515	298	871	344	107314	0	"right"	149	348	1	""	"I tried to figure out cues about horizontal line placement to figure out what went where."	"I tried putting the ones with the horizontal line higher on the right."	5.72256666666667	343.354	23	2	0.5	"tl_0_90.jpg"
144121	"test-sort"	0	1	161886	"p415544"	"high"	"left"	"A1F1A2FXG1I6ZY"	23	0	33	"lib/images/tl_0_90.jpg"	"L"	"left"	"tl_0_90.jpg"	515	298	149	348	112226	1	"left"	149	348	1	""	"I tried to figure out cues about horizontal line placement to figure out what went where."	"I tried putting the ones with the horizontal line higher on the right."	5.72256666666667	343.354	23	2	0.5	"tl_0_90.jpg"
144121	"test-sort"	0	1	161886	"p415544"	"high"	"left"	"A1F1A2FXG1I6ZY"	24	1	34	"lib/images/tl_30_120.jpg"	"L"	"left"	"tl_30_120.jpg"	515	298	888	353	114969	0	"right"	149	348	1	""	"I tried to figure out cues about horizontal line placement to figure out what went where."	"I tried putting the ones with the horizontal line higher on the right."	5.72256666666667	343.354	24	2	0.5	"tl_30_120.jpg"
144121	"test-sort"	0	1	161886	"p415544"	"high"	"left"	"A1F1A2FXG1I6ZY"	24	0	35	"lib/images/tl_30_120.jpg"	"L"	"left"	"tl_30_120.jpg"	515	298	149	348	119794	1	"left"	149	348	1	""	"I tried to figure out cues about horizontal line placement to figure out what went where."	"I tried putting the ones with the horizontal line higher on the right."	5.72256666666667	343.354	24	2	0.5	"tl_30_120.jpg"
144121	"test-sort"	0	1	161886	"p415544"	"high"	"left"	"A1F1A2FXG1I6ZY"	25	1	36	"lib/images/tl_0_150.jpg"	"L"	"left"	"tl_0_150.jpg"	515	298	798	366	122377	0	"right"	149	348	1	""	"I tried to figure out cues about horizontal line placement to figure out what went where."	"I tried putting the ones with the horizontal line higher on the right."	5.72256666666667	343.354	25	2	0.5	"tl_0_150.jpg"
144121	"test-sort"	0	1	161886	"p415544"	"high"	"left"	"A1F1A2FXG1I6ZY"	25	0	37	"lib/images/tl_0_150.jpg"	"L"	"left"	"tl_0_150.jpg"	515	298	149	348	128752	1	"left"	149	348	1	""	"I tried to figure out cues about horizontal line placement to figure out what went where."	"I tried putting the ones with the horizontal line higher on the right."	5.72256666666667	343.354	25	2	0.5	"tl_0_150.jpg"
144121	"test-sort"	0	1	161886	"p415544"	"high"	"left"	"A1F1A2FXG1I6ZY"	26	1	38	"lib/images/tl_20_120.jpg"	"L"	"left"	"tl_20_120.jpg"	515	298	149	348	131715	1	"left"	149	348	1	""	"I tried to figure out cues about horizontal line placement to figure out what went where."	"I tried putting the ones with the horizontal line higher on the right."	5.72256666666667	343.354	26	2	0.5	"tl_20_120.jpg"
144121	"test-sort"	0	1	161886	"p415544"	"high"	"left"	"A1F1A2FXG1I6ZY"	27	1	39	"lib/images/tl_40_30.jpg"	"T"	"right"	"tl_40_30.jpg"	515	298	881	348	134143	1	"right"	881	348	1	""	"I tried to figure out cues about horizontal line placement to figure out what went where."	"I tried putting the ones with the horizontal line higher on the right."	5.72256666666667	343.354	27	2	0.5	"tl_40_30.jpg"
144121	"test-sort"	0	1	161886	"p415544"	"high"	"left"	"A1F1A2FXG1I6ZY"	28	1	40	"lib/images/tl_30_30.jpg"	"T"	"right"	"tl_30_30.jpg"	515	298	881	348	136465	1	"right"	881	348	1	""	"I tried to figure out cues about horizontal line placement to figure out what went where."	"I tried putting the ones with the horizontal line higher on the right."	5.72256666666667	343.354	28	2	0.5	"tl_30_30.jpg"
144121	"test-sort"	0	1	161886	"p415544"	"high"	"left"	"A1F1A2FXG1I6ZY"	29	1	41	"lib/images/tl_30_0.jpg"	"T"	"right"	"tl_30_0.jpg"	515	298	881	348	138958	1	"right"	881	348	1	""	"I tried to figure out cues about horizontal line placement to figure out what went where."	"I tried putting the ones with the horizontal line higher on the right."	5.72256666666667	343.354	29	2	0.5	"tl_30_0.jpg"
144121	"test-sort"	0	1	161887	"p415544"	"high"	"left"	"A1F1A2FXG1I6ZY"	30	1	42	"lib/images/tl_30_150.jpg"	"L"	"left"	"tl_30_150.jpg"	515	298	149	348	141618	1	"left"	149	348	1	""	"I tried to figure out cues about horizontal line placement to figure out what went where."	"I tried putting the ones with the horizontal line higher on the right."	5.72256666666667	343.354	30	2	0.5	"tl_30_150.jpg"
128268	"test-sort"	0	3	294179	"p415544"	"high"	"left"	"A1F1A2FXG1I6ZY"	1	1	1	"lib/images/tl_0_90.jpg"	"L"	"left"	"tl_0_90.jpg"	515	298	149	348	1875	1	"left"	149	348	2	""	"I tried to figure out cues about horizontal line placement to figure out what went where."	"I tried putting the ones with the horizontal line higher on the right."	5.72256666666667	343.354	31	3	0.5	"tl_0_90.jpg"
128268	"test-sort"	0	3	294179	"p415544"	"high"	"left"	"A1F1A2FXG1I6ZY"	2	1	2	"lib/images/tl_0_60.jpg"	"L"	"left"	"tl_0_60.jpg"	515	298	917	330	4683	0	"right"	149	348	2	""	"I tried to figure out cues about horizontal line placement to figure out what went where."	"I tried putting the ones with the horizontal line higher on the right."	5.72256666666667	343.354	32	3	0.5	"tl_0_60.jpg"
128268	"test-sort"	0	3	294179	"p415544"	"high"	"left"	"A1F1A2FXG1I6ZY"	2	0	3	"lib/images/tl_0_60.jpg"	"L"	"left"	"tl_0_60.jpg"	515	298	149	348	9530	1	"left"	149	348	2	""	"I tried to figure out cues about horizontal line placement to figure out what went where."	"I tried putting the ones with the horizontal line higher on the right."	5.72256666666667	343.354	32	3	0.5	"tl_0_60.jpg"
128268	"test-sort"	0	3	294179	"p415544"	"high"	"left"	"A1F1A2FXG1I6ZY"	3	1	4	"lib/images/tl_50_30.jpg"	"T"	"right"	"tl_50_30.jpg"	515	298	881	348	12786	1	"right"	881	348	2	""	"I tried to figure out cues about horizontal line placement to figure out what went where."	"I tried putting the ones with the horizontal line higher on the right."	5.72256666666667	343.354	33	3	0.5	"tl_50_30.jpg"
128268	"test-sort"	0	3	294179	"p415544"	"high"	"left"	"A1F1A2FXG1I6ZY"	4	1	5	"lib/images/tl_30_120.jpg"	"L"	"left"	"tl_30_120.jpg"	515	298	149	348	15131	1	"left"	149	348	2	""	"I tried to figure out cues about horizontal line placement to figure out what went where."	"I tried putting the ones with the horizontal line higher on the right."	5.72256666666667	343.354	34	3	0.5	"tl_30_120.jpg"
128268	"test-sort"	0	3	294179	"p415544"	"high"	"left"	"A1F1A2FXG1I6ZY"	5	1	6	"lib/images/tl_20_150.jpg"	"L"	"left"	"tl_20_150.jpg"	515	298	149	348	17750	1	"left"	149	348	2	""	"I tried to figure out cues about horizontal line placement to figure out what went where."	"I tried putting the ones with the horizontal line higher on the right."	5.72256666666667	343.354	35	3	0.5	"tl_20_150.jpg"
128268	"test-sort"	0	3	294179	"p415544"	"high"	"left"	"A1F1A2FXG1I6ZY"	6	1	7	"lib/images/tl_10_60.jpg"	"L"	"left"	"tl_10_60.jpg"	515	298	149	348	21179	1	"left"	149	348	2	""	"I tried to figure out cues about horizontal line placement to figure out what went where."	"I tried putting the ones with the horizontal line higher on the right."	5.72256666666667	343.354	36	3	0.5	"tl_10_60.jpg"
128268	"test-sort"	0	3	294179	"p415544"	"high"	"left"	"A1F1A2FXG1I6ZY"	7	1	8	"lib/images/tl_40_60.jpg"	"T"	"right"	"tl_40_60.jpg"	515	298	881	348	24457	1	"right"	881	348	2	""	"I tried to figure out cues about horizontal line placement to figure out what went where."	"I tried putting the ones with the horizontal line higher on the right."	5.72256666666667	343.354	37	3	0.5	"tl_40_60.jpg"
128268	"test-sort"	0	3	294179	"p415544"	"high"	"left"	"A1F1A2FXG1I6ZY"	8	1	9	"lib/images/tl_40_90.jpg"	"T"	"right"	"tl_40_90.jpg"	515	298	133	344	26921	0	"left"	881	348	2	""	"I tried to figure out cues about horizontal line placement to figure out what went where."	"I tried putting the ones with the horizontal line higher on the right."	5.72256666666667	343.354	38	3	0.5	"tl_40_90.jpg"
128268	"test-sort"	0	3	294179	"p415544"	"high"	"left"	"A1F1A2FXG1I6ZY"	8	0	10	"lib/images/tl_40_90.jpg"	"T"	"right"	"tl_40_90.jpg"	515	298	881	348	31746	1	"right"	881	348	2	""	"I tried to figure out cues about horizontal line placement to figure out what went where."	"I tried putting the ones with the horizontal line higher on the right."	5.72256666666667	343.354	38	3	0.5	"tl_40_90.jpg"
128268	"test-sort"	0	3	294179	"p415544"	"high"	"left"	"A1F1A2FXG1I6ZY"	9	1	11	"lib/images/tl_40_150.jpg"	"L"	"left"	"tl_40_150.jpg"	515	298	149	348	34357	1	"left"	149	348	2	""	"I tried to figure out cues about horizontal line placement to figure out what went where."	"I tried putting the ones with the horizontal line higher on the right."	5.72256666666667	343.354	39	3	0.5	"tl_40_150.jpg"
128268	"test-sort"	0	3	294179	"p415544"	"high"	"left"	"A1F1A2FXG1I6ZY"	10	1	12	"lib/images/tl_20_90.jpg"	"L"	"left"	"tl_20_90.jpg"	515	298	149	348	37707	1	"left"	149	348	2	""	"I tried to figure out cues about horizontal line placement to figure out what went where."	"I tried putting the ones with the horizontal line higher on the right."	5.72256666666667	343.354	40	3	0.5	"tl_20_90.jpg"
128268	"test-sort"	0	3	294179	"p415544"	"high"	"left"	"A1F1A2FXG1I6ZY"	11	1	13	"lib/images/tl_30_30.jpg"	"T"	"right"	"tl_30_30.jpg"	515	298	881	348	40501	1	"right"	881	348	2	""	"I tried to figure out cues about horizontal line placement to figure out what went where."	"I tried putting the ones with the horizontal line higher on the right."	5.72256666666667	343.354	41	3	0.5	"tl_30_30.jpg"
128268	"test-sort"	0	3	294179	"p415544"	"high"	"left"	"A1F1A2FXG1I6ZY"	12	1	14	"lib/images/tl_40_0.jpg"	"T"	"right"	"tl_40_0.jpg"	515	298	881	348	42898	1	"right"	881	348	2	""	"I tried to figure out cues about horizontal line placement to figure out what went where."	"I tried putting the ones with the horizontal line higher on the right."	5.72256666666667	343.354	42	3	0.5	"tl_40_0.jpg"
128268	"test-sort"	0	3	294179	"p415544"	"high"	"left"	"A1F1A2FXG1I6ZY"	13	1	15	"lib/images/tl_50_90.jpg"	"T"	"right"	"tl_50_90.jpg"	515	298	143	304	46351	0	"left"	881	348	2	""	"I tried to figure out cues about horizontal line placement to figure out what went where."	"I tried putting the ones with the horizontal line higher on the right."	5.72256666666667	343.354	43	3	0.5	"tl_50_90.jpg"
128268	"test-sort"	0	3	294179	"p415544"	"high"	"left"	"A1F1A2FXG1I6ZY"	13	0	16	"lib/images/tl_50_90.jpg"	"T"	"right"	"tl_50_90.jpg"	515	298	881	348	51293	1	"right"	881	348	2	""	"I tried to figure out cues about horizontal line placement to figure out what went where."	"I tried putting the ones with the horizontal line higher on the right."	5.72256666666667	343.354	43	3	0.5	"tl_50_90.jpg"
128268	"test-sort"	0	3	294179	"p415544"	"high"	"left"	"A1F1A2FXG1I6ZY"	14	1	17	"lib/images/tl_20_120.jpg"	"L"	"left"	"tl_20_120.jpg"	515	298	149	348	53621	1	"left"	149	348	2	""	"I tried to figure out cues about horizontal line placement to figure out what went where."	"I tried putting the ones with the horizontal line higher on the right."	5.72256666666667	343.354	44	3	0.5	"tl_20_120.jpg"
128268	"test-sort"	0	3	294179	"p415544"	"high"	"left"	"A1F1A2FXG1I6ZY"	15	1	18	"lib/images/tl_10_120.jpg"	"L"	"left"	"tl_10_120.jpg"	515	298	149	348	55999	1	"left"	149	348	2	""	"I tried to figure out cues about horizontal line placement to figure out what went where."	"I tried putting the ones with the horizontal line higher on the right."	5.72256666666667	343.354	45	3	0.5	"tl_10_120.jpg"
128268	"test-sort"	0	3	294179	"p415544"	"high"	"left"	"A1F1A2FXG1I6ZY"	16	1	19	"lib/images/tl_10_150.jpg"	"L"	"left"	"tl_10_150.jpg"	515	298	149	348	58368	1	"left"	149	348	2	""	"I tried to figure out cues about horizontal line placement to figure out what went where."	"I tried putting the ones with the horizontal line higher on the right."	5.72256666666667	343.354	46	4	0.5	"tl_10_150.jpg"
128268	"test-sort"	0	3	294179	"p415544"	"high"	"left"	"A1F1A2FXG1I6ZY"	17	1	20	"lib/images/tl_10_0.jpg"	"T"	"right"	"tl_10_0.jpg"	515	298	881	348	60713	1	"right"	881	348	2	""	"I tried to figure out cues about horizontal line placement to figure out what went where."	"I tried putting the ones with the horizontal line higher on the right."	5.72256666666667	343.354	47	4	0.5	"tl_10_0.jpg"
128268	"test-sort"	0	3	294179	"p415544"	"high"	"left"	"A1F1A2FXG1I6ZY"	18	1	21	"lib/images/tl_20_30.jpg"	"T"	"right"	"tl_20_30.jpg"	515	298	881	348	63169	1	"right"	881	348	2	""	"I tried to figure out cues about horizontal line placement to figure out what went where."	"I tried putting the ones with the horizontal line higher on the right."	5.72256666666667	343.354	48	4	0.5	"tl_20_30.jpg"
128268	"test-sort"	0	3	294179	"p415544"	"high"	"left"	"A1F1A2FXG1I6ZY"	19	1	22	"lib/images/tl_30_150.jpg"	"L"	"left"	"tl_30_150.jpg"	515	298	827	347	65521	0	"right"	149	348	2	""	"I tried to figure out cues about horizontal line placement to figure out what went where."	"I tried putting the ones with the horizontal line higher on the right."	5.72256666666667	343.354	49	4	0.5	"tl_30_150.jpg"
128268	"test-sort"	0	3	294179	"p415544"	"high"	"left"	"A1F1A2FXG1I6ZY"	19	0	23	"lib/images/tl_30_150.jpg"	"L"	"left"	"tl_30_150.jpg"	515	298	149	348	70369	1	"left"	149	348	2	""	"I tried to figure out cues about horizontal line placement to figure out what went where."	"I tried putting the ones with the horizontal line higher on the right."	5.72256666666667	343.354	49	4	0.5	"tl_30_150.jpg"
128268	"test-sort"	0	3	294179	"p415544"	"high"	"left"	"A1F1A2FXG1I6ZY"	20	1	24	"lib/images/tl_0_150.jpg"	"L"	"left"	"tl_0_150.jpg"	515	298	149	348	72637	1	"left"	149	348	2	""	"I tried to figure out cues about horizontal line placement to figure out what went where."	"I tried putting the ones with the horizontal line higher on the right."	5.72256666666667	343.354	50	4	0.5	"tl_0_150.jpg"
128268	"test-sort"	0	3	294179	"p415544"	"high"	"left"	"A1F1A2FXG1I6ZY"	21	1	25	"lib/images/tl_50_120.jpg"	"T"	"right"	"tl_50_120.jpg"	515	298	881	348	75044	1	"right"	881	348	2	""	"I tried to figure out cues about horizontal line placement to figure out what went where."	"I tried putting the ones with the horizontal line higher on the right."	5.72256666666667	343.354	51	4	0.5	"tl_50_120.jpg"
128268	"test-sort"	0	3	294179	"p415544"	"high"	"left"	"A1F1A2FXG1I6ZY"	22	1	26	"lib/images/tl_30_0.jpg"	"T"	"right"	"tl_30_0.jpg"	515	298	171	304	77428	0	"left"	881	348	2	""	"I tried to figure out cues about horizontal line placement to figure out what went where."	"I tried putting the ones with the horizontal line higher on the right."	5.72256666666667	343.354	52	4	0.5	"tl_30_0.jpg"
128268	"test-sort"	0	3	294179	"p415544"	"high"	"left"	"A1F1A2FXG1I6ZY"	22	0	27	"lib/images/tl_30_0.jpg"	"T"	"right"	"tl_30_0.jpg"	515	298	881	348	83186	1	"right"	881	348	2	""	"I tried to figure out cues about horizontal line placement to figure out what went where."	"I tried putting the ones with the horizontal line higher on the right."	5.72256666666667	343.354	52	4	0.5	"tl_30_0.jpg"
128268	"test-sort"	0	3	294179	"p415544"	"high"	"left"	"A1F1A2FXG1I6ZY"	23	1	28	"lib/images/tl_40_30.jpg"	"T"	"right"	"tl_40_30.jpg"	515	298	175	304	85438	0	"left"	881	348	2	""	"I tried to figure out cues about horizontal line placement to figure out what went where."	"I tried putting the ones with the horizontal line higher on the right."	5.72256666666667	343.354	53	4	0.5	"tl_40_30.jpg"
128268	"test-sort"	0	3	294179	"p415544"	"high"	"left"	"A1F1A2FXG1I6ZY"	23	0	29	"lib/images/tl_40_30.jpg"	"T"	"right"	"tl_40_30.jpg"	515	298	881	348	90271	1	"right"	881	348	2	""	"I tried to figure out cues about horizontal line placement to figure out what went where."	"I tried putting the ones with the horizontal line higher on the right."	5.72256666666667	343.354	53	4	0.5	"tl_40_30.jpg"
128268	"test-sort"	0	3	294179	"p415544"	"high"	"left"	"A1F1A2FXG1I6ZY"	24	1	30	"lib/images/tl_20_0.jpg"	"T"	"right"	"tl_20_0.jpg"	515	298	175	324	92672	0	"left"	881	348	2	""	"I tried to figure out cues about horizontal line placement to figure out what went where."	"I tried putting the ones with the horizontal line higher on the right."	5.72256666666667	343.354	54	4	0.5	"tl_20_0.jpg"
128268	"test-sort"	0	3	294179	"p415544"	"high"	"left"	"A1F1A2FXG1I6ZY"	24	0	31	"lib/images/tl_20_0.jpg"	"T"	"right"	"tl_20_0.jpg"	515	298	881	348	98320	1	"right"	881	348	2	""	"I tried to figure out cues about horizontal line placement to figure out what went where."	"I tried putting the ones with the horizontal line higher on the right."	5.72256666666667	343.354	54	4	0.5	"tl_20_0.jpg"
128268	"test-sort"	0	3	294179	"p415544"	"high"	"left"	"A1F1A2FXG1I6ZY"	25	1	32	"lib/images/tl_50_60.jpg"	"T"	"right"	"tl_50_60.jpg"	515	298	881	348	100978	1	"right"	881	348	2	""	"I tried to figure out cues about horizontal line placement to figure out what went where."	"I tried putting the ones with the horizontal line higher on the right."	5.72256666666667	343.354	55	4	0.5	"tl_50_60.jpg"
128268	"test-sort"	0	3	294179	"p415544"	"high"	"left"	"A1F1A2FXG1I6ZY"	26	1	33	"lib/images/tl_50_0.jpg"	"T"	"right"	"tl_50_0.jpg"	515	298	881	348	104039	1	"right"	881	348	2	""	"I tried to figure out cues about horizontal line placement to figure out what went where."	"I tried putting the ones with the horizontal line higher on the right."	5.72256666666667	343.354	56	4	0.5	"tl_50_0.jpg"
128268	"test-sort"	0	3	294179	"p415544"	"high"	"left"	"A1F1A2FXG1I6ZY"	27	1	34	"lib/images/tl_0_120.jpg"	"L"	"left"	"tl_0_120.jpg"	515	298	149	348	106549	1	"left"	149	348	2	""	"I tried to figure out cues about horizontal line placement to figure out what went where."	"I tried putting the ones with the horizontal line higher on the right."	5.72256666666667	343.354	57	4	0.5	"tl_0_120.jpg"
128268	"test-sort"	0	3	294179	"p415544"	"high"	"left"	"A1F1A2FXG1I6ZY"	28	1	35	"lib/images/tl_10_90.jpg"	"L"	"left"	"tl_10_90.jpg"	515	298	149	348	111262	1	"left"	149	348	2	""	"I tried to figure out cues about horizontal line placement to figure out what went where."	"I tried putting the ones with the horizontal line higher on the right."	5.72256666666667	343.354	58	4	0.5	"tl_10_90.jpg"
128268	"test-sort"	0	3	294179	"p415544"	"high"	"left"	"A1F1A2FXG1I6ZY"	29	1	36	"lib/images/tl_0_30.jpg"	"L"	"left"	"tl_0_30.jpg"	515	298	823	347	113544	0	"right"	149	348	2	""	"I tried to figure out cues about horizontal line placement to figure out what went where."	"I tried putting the ones with the horizontal line higher on the right."	5.72256666666667	343.354	59	4	0.5	"tl_0_30.jpg"
128268	"test-sort"	0	3	294179	"p415544"	"high"	"left"	"A1F1A2FXG1I6ZY"	29	0	37	"lib/images/tl_0_30.jpg"	"L"	"left"	"tl_0_30.jpg"	515	298	149	348	118323	1	"left"	149	348	2	""	"I tried to figure out cues about horizontal line placement to figure out what went where."	"I tried putting the ones with the horizontal line higher on the right."	5.72256666666667	343.354	59	4	0.5	"tl_0_30.jpg"
128268	"test-sort"	0	3	294179	"p415544"	"high"	"left"	"A1F1A2FXG1I6ZY"	30	1	38	"lib/images/tl_30_60.jpg"	"T"	"right"	"tl_30_60.jpg"	515	298	251	347	120980	0	"left"	881	348	2	""	"I tried to figure out cues about horizontal line placement to figure out what went where."	"I tried putting the ones with the horizontal line higher on the right."	5.72256666666667	343.354	60	4	0.5	"tl_30_60.jpg"
128268	"test-sort"	0	3	294179	"p415544"	"high"	"left"	"A1F1A2FXG1I6ZY"	30	0	39	"lib/images/tl_30_60.jpg"	"T"	"right"	"tl_30_60.jpg"	515	298	881	348	125767	1	"right"	881	348	2	""	"I tried to figure out cues about horizontal line placement to figure out what went where."	"I tried putting the ones with the horizontal line higher on the right."	5.72256666666667	343.354	60	4	0.5	"tl_30_60.jpg"
284479	"test-sort"	0	1	286783	"p583653"	"high"	"left"	"A11UBOE8N877JJ"	1	1	1	"lib/images/tl_30_120.jpg"	"L"	"left"	"tl_30_120.jpg"	515	298	149	348	4793	1	"left"	149	348	1	""	"I looked for patterns"	"category A was more \L\ shaped, B's were usually crosses."	12.0519333333333	723.116	1	1	0.5	"tl_30_120.jpg"
284479	"test-sort"	0	1	286783	"p583653"	"high"	"left"	"A11UBOE8N877JJ"	2	1	2	"lib/images/tl_0_90.jpg"	"L"	"left"	"tl_0_90.jpg"	515	298	149	348	7858	1	"left"	149	348	1	""	"I looked for patterns"	"category A was more \L\ shaped, B's were usually crosses."	12.0519333333333	723.116	2	1	0.5	"tl_0_90.jpg"
284479	"test-sort"	0	1	286783	"p583653"	"high"	"left"	"A11UBOE8N877JJ"	3	1	3	"lib/images/tl_40_150.jpg"	"L"	"left"	"tl_40_150.jpg"	515	298	891	365	10589	0	"right"	149	348	1	""	"I looked for patterns"	"category A was more \L\ shaped, B's were usually crosses."	12.0519333333333	723.116	3	1	0.5	"tl_40_150.jpg"
284479	"test-sort"	0	1	286783	"p583653"	"high"	"left"	"A11UBOE8N877JJ"	3	0	4	"lib/images/tl_40_150.jpg"	"L"	"left"	"tl_40_150.jpg"	515	298	149	348	17266	1	"left"	149	348	1	""	"I looked for patterns"	"category A was more \L\ shaped, B's were usually crosses."	12.0519333333333	723.116	3	1	0.5	"tl_40_150.jpg"
284479	"test-sort"	0	1	286783	"p583653"	"high"	"left"	"A11UBOE8N877JJ"	4	1	5	"lib/images/tl_0_30.jpg"	"L"	"left"	"tl_0_30.jpg"	515	298	881	377	20714	0	"right"	149	348	1	""	"I looked for patterns"	"category A was more \L\ shaped, B's were usually crosses."	12.0519333333333	723.116	4	1	0.5	"tl_0_30.jpg"
284479	"test-sort"	0	1	286783	"p583653"	"high"	"left"	"A11UBOE8N877JJ"	4	0	6	"lib/images/tl_0_30.jpg"	"L"	"left"	"tl_0_30.jpg"	515	298	149	348	39006	1	"left"	149	348	1	""	"I looked for patterns"	"category A was more \L\ shaped, B's were usually crosses."	12.0519333333333	723.116	4	1	0.5	"tl_0_30.jpg"
284479	"test-sort"	0	1	286783	"p583653"	"high"	"left"	"A11UBOE8N877JJ"	5	1	7	"lib/images/tl_20_30.jpg"	"T"	"right"	"tl_20_30.jpg"	515	298	71	341	41656	0	"left"	881	348	1	""	"I looked for patterns"	"category A was more \L\ shaped, B's were usually crosses."	12.0519333333333	723.116	5	1	0.5	"tl_20_30.jpg"
284479	"test-sort"	0	1	286783	"p583653"	"high"	"left"	"A11UBOE8N877JJ"	5	0	8	"lib/images/tl_20_30.jpg"	"T"	"right"	"tl_20_30.jpg"	515	298	881	348	58267	1	"right"	881	348	1	""	"I looked for patterns"	"category A was more \L\ shaped, B's were usually crosses."	12.0519333333333	723.116	5	1	0.5	"tl_20_30.jpg"
284479	"test-sort"	0	1	286783	"p583653"	"high"	"left"	"A11UBOE8N877JJ"	6	1	9	"lib/images/tl_50_0.jpg"	"T"	"right"	"tl_50_0.jpg"	515	298	100	388	61612	0	"left"	881	348	1	""	"I looked for patterns"	"category A was more \L\ shaped, B's were usually crosses."	12.0519333333333	723.116	6	1	0.5	"tl_50_0.jpg"
284479	"test-sort"	0	1	286783	"p583653"	"high"	"left"	"A11UBOE8N877JJ"	6	0	10	"lib/images/tl_50_0.jpg"	"T"	"right"	"tl_50_0.jpg"	515	298	881	348	74195	1	"right"	881	348	1	""	"I looked for patterns"	"category A was more \L\ shaped, B's were usually crosses."	12.0519333333333	723.116	6	1	0.5	"tl_50_0.jpg"
284479	"test-sort"	0	1	286783	"p583653"	"high"	"left"	"A11UBOE8N877JJ"	7	1	11	"lib/images/tl_50_30.jpg"	"T"	"right"	"tl_50_30.jpg"	515	298	881	348	77637	1	"right"	881	348	1	""	"I looked for patterns"	"category A was more \L\ shaped, B's were usually crosses."	12.0519333333333	723.116	7	1	0.5	"tl_50_30.jpg"
284479	"test-sort"	0	1	286783	"p583653"	"high"	"left"	"A11UBOE8N877JJ"	8	1	12	"lib/images/tl_50_60.jpg"	"T"	"right"	"tl_50_60.jpg"	515	298	53	383	85348	0	"left"	881	348	1	""	"I looked for patterns"	"category A was more \L\ shaped, B's were usually crosses."	12.0519333333333	723.116	8	1	0.5	"tl_50_60.jpg"
284479	"test-sort"	0	1	286783	"p583653"	"high"	"left"	"A11UBOE8N877JJ"	8	0	13	"lib/images/tl_50_60.jpg"	"T"	"right"	"tl_50_60.jpg"	515	298	881	348	92750	1	"right"	881	348	1	""	"I looked for patterns"	"category A was more \L\ shaped, B's were usually crosses."	12.0519333333333	723.116	8	1	0.5	"tl_50_60.jpg"
284479	"test-sort"	0	1	286783	"p583653"	"high"	"left"	"A11UBOE8N877JJ"	9	1	14	"lib/images/tl_20_0.jpg"	"T"	"right"	"tl_20_0.jpg"	515	298	881	348	97184	1	"right"	881	348	1	""	"I looked for patterns"	"category A was more \L\ shaped, B's were usually crosses."	12.0519333333333	723.116	9	1	0.5	"tl_20_0.jpg"
284479	"test-sort"	0	1	286783	"p583653"	"high"	"left"	"A11UBOE8N877JJ"	10	1	15	"lib/images/tl_30_30.jpg"	"T"	"right"	"tl_30_30.jpg"	515	298	881	348	99975	1	"right"	881	348	1	""	"I looked for patterns"	"category A was more \L\ shaped, B's were usually crosses."	12.0519333333333	723.116	10	1	0.5	"tl_30_30.jpg"
284479	"test-sort"	0	1	286783	"p583653"	"high"	"left"	"A11UBOE8N877JJ"	11	1	16	"lib/images/tl_30_60.jpg"	"T"	"right"	"tl_30_60.jpg"	515	298	881	348	102941	1	"right"	881	348	1	""	"I looked for patterns"	"category A was more \L\ shaped, B's were usually crosses."	12.0519333333333	723.116	11	1	0.5	"tl_30_60.jpg"
284479	"test-sort"	0	1	286783	"p583653"	"high"	"left"	"A11UBOE8N877JJ"	12	1	17	"lib/images/tl_40_60.jpg"	"T"	"right"	"tl_40_60.jpg"	515	298	881	348	108008	1	"right"	881	348	1	""	"I looked for patterns"	"category A was more \L\ shaped, B's were usually crosses."	12.0519333333333	723.116	12	1	0.5	"tl_40_60.jpg"
284479	"test-sort"	0	1	286783	"p583653"	"high"	"left"	"A11UBOE8N877JJ"	13	1	18	"lib/images/tl_10_90.jpg"	"L"	"left"	"tl_10_90.jpg"	515	298	973	324	117997	0	"right"	149	348	1	""	"I looked for patterns"	"category A was more \L\ shaped, B's were usually crosses."	12.0519333333333	723.116	13	1	0.5	"tl_10_90.jpg"
284479	"test-sort"	0	1	286783	"p583653"	"high"	"left"	"A11UBOE8N877JJ"	13	0	19	"lib/images/tl_10_90.jpg"	"L"	"left"	"tl_10_90.jpg"	515	298	917	308	127549	0	"right"	149	348	1	""	"I looked for patterns"	"category A was more \L\ shaped, B's were usually crosses."	12.0519333333333	723.116	13	1	0.5	"tl_10_90.jpg"
284479	"test-sort"	0	1	286784	"p583653"	"high"	"left"	"A11UBOE8N877JJ"	13	0	20	"lib/images/tl_10_90.jpg"	"L"	"left"	"tl_10_90.jpg"	515	298	149	348	133172	1	"left"	149	348	1	""	"I looked for patterns"	"category A was more \L\ shaped, B's were usually crosses."	12.0519333333333	723.116	13	1	0.5	"tl_10_90.jpg"
284479	"test-sort"	0	1	286784	"p583653"	"high"	"left"	"A11UBOE8N877JJ"	14	1	21	"lib/images/tl_40_30.jpg"	"T"	"right"	"tl_40_30.jpg"	515	298	881	348	164702	1	"right"	881	348	1	""	"I looked for patterns"	"category A was more \L\ shaped, B's were usually crosses."	12.0519333333333	723.116	14	1	0.5	"tl_40_30.jpg"
284479	"test-sort"	0	1	286784	"p583653"	"high"	"left"	"A11UBOE8N877JJ"	15	1	22	"lib/images/tl_10_120.jpg"	"L"	"left"	"tl_10_120.jpg"	515	298	149	348	167742	1	"left"	149	348	1	""	"I looked for patterns"	"category A was more \L\ shaped, B's were usually crosses."	12.0519333333333	723.116	15	1	0.5	"tl_10_120.jpg"
284479	"test-sort"	0	1	286784	"p583653"	"high"	"left"	"A11UBOE8N877JJ"	16	1	23	"lib/images/tl_30_150.jpg"	"L"	"left"	"tl_30_150.jpg"	515	298	149	348	199883	1	"left"	149	348	1	""	"I looked for patterns"	"category A was more \L\ shaped, B's were usually crosses."	12.0519333333333	723.116	16	2	0.5	"tl_30_150.jpg"
284479	"test-sort"	0	1	286784	"p583653"	"high"	"left"	"A11UBOE8N877JJ"	17	1	24	"lib/images/tl_20_90.jpg"	"L"	"left"	"tl_20_90.jpg"	515	298	835	360	202773	0	"right"	149	348	1	""	"I looked for patterns"	"category A was more \L\ shaped, B's were usually crosses."	12.0519333333333	723.116	17	2	0.5	"tl_20_90.jpg"
284479	"test-sort"	0	1	286784	"p583653"	"high"	"left"	"A11UBOE8N877JJ"	17	0	25	"lib/images/tl_20_90.jpg"	"L"	"left"	"tl_20_90.jpg"	515	298	149	348	208994	1	"left"	149	348	1	""	"I looked for patterns"	"category A was more \L\ shaped, B's were usually crosses."	12.0519333333333	723.116	17	2	0.5	"tl_20_90.jpg"
284479	"test-sort"	0	1	286784	"p583653"	"high"	"left"	"A11UBOE8N877JJ"	18	1	26	"lib/images/tl_30_0.jpg"	"T"	"right"	"tl_30_0.jpg"	515	298	881	348	212596	1	"right"	881	348	1	""	"I looked for patterns"	"category A was more \L\ shaped, B's were usually crosses."	12.0519333333333	723.116	18	2	0.5	"tl_30_0.jpg"
284479	"test-sort"	0	1	286784	"p583653"	"high"	"left"	"A11UBOE8N877JJ"	19	1	27	"lib/images/tl_50_120.jpg"	"T"	"right"	"tl_50_120.jpg"	515	298	196	299	215816	0	"left"	881	348	1	""	"I looked for patterns"	"category A was more \L\ shaped, B's were usually crosses."	12.0519333333333	723.116	19	2	0.5	"tl_50_120.jpg"
284479	"test-sort"	0	1	286784	"p583653"	"high"	"left"	"A11UBOE8N877JJ"	19	0	28	"lib/images/tl_50_120.jpg"	"T"	"right"	"tl_50_120.jpg"	515	298	881	348	221377	1	"right"	881	348	1	""	"I looked for patterns"	"category A was more \L\ shaped, B's were usually crosses."	12.0519333333333	723.116	19	2	0.5	"tl_50_120.jpg"
284479	"test-sort"	0	1	286784	"p583653"	"high"	"left"	"A11UBOE8N877JJ"	20	1	29	"lib/images/tl_10_150.jpg"	"L"	"left"	"tl_10_150.jpg"	515	298	782	374	224464	0	"right"	149	348	1	""	"I looked for patterns"	"category A was more \L\ shaped, B's were usually crosses."	12.0519333333333	723.116	20	2	0.5	"tl_10_150.jpg"
284479	"test-sort"	0	1	286784	"p583653"	"high"	"left"	"A11UBOE8N877JJ"	20	0	30	"lib/images/tl_10_150.jpg"	"L"	"left"	"tl_10_150.jpg"	515	298	149	348	229668	1	"left"	149	348	1	""	"I looked for patterns"	"category A was more \L\ shaped, B's were usually crosses."	12.0519333333333	723.116	20	2	0.5	"tl_10_150.jpg"
284479	"test-sort"	0	1	286784	"p583653"	"high"	"left"	"A11UBOE8N877JJ"	21	1	31	"lib/images/tl_10_0.jpg"	"T"	"right"	"tl_10_0.jpg"	515	298	881	348	232863	1	"right"	881	348	1	""	"I looked for patterns"	"category A was more \L\ shaped, B's were usually crosses."	12.0519333333333	723.116	21	2	0.5	"tl_10_0.jpg"
284479	"test-sort"	0	1	286784	"p583653"	"high"	"left"	"A11UBOE8N877JJ"	22	1	32	"lib/images/tl_0_120.jpg"	"L"	"left"	"tl_0_120.jpg"	515	298	149	348	237140	1	"left"	149	348	1	""	"I looked for patterns"	"category A was more \L\ shaped, B's were usually crosses."	12.0519333333333	723.116	22	2	0.5	"tl_0_120.jpg"
284479	"test-sort"	0	1	286784	"p583653"	"high"	"left"	"A11UBOE8N877JJ"	23	1	33	"lib/images/tl_0_60.jpg"	"L"	"left"	"tl_0_60.jpg"	515	298	149	348	241459	1	"left"	149	348	1	""	"I looked for patterns"	"category A was more \L\ shaped, B's were usually crosses."	12.0519333333333	723.116	23	2	0.5	"tl_0_60.jpg"
284479	"test-sort"	0	1	286784	"p583653"	"high"	"left"	"A11UBOE8N877JJ"	24	1	34	"lib/images/tl_20_120.jpg"	"L"	"left"	"tl_20_120.jpg"	515	298	149	348	245646	1	"left"	149	348	1	""	"I looked for patterns"	"category A was more \L\ shaped, B's were usually crosses."	12.0519333333333	723.116	24	2	0.5	"tl_20_120.jpg"
284479	"test-sort"	0	1	286784	"p583653"	"high"	"left"	"A11UBOE8N877JJ"	25	1	35	"lib/images/tl_40_0.jpg"	"T"	"right"	"tl_40_0.jpg"	515	298	881	348	248965	1	"right"	881	348	1	""	"I looked for patterns"	"category A was more \L\ shaped, B's were usually crosses."	12.0519333333333	723.116	25	2	0.5	"tl_40_0.jpg"
284479	"test-sort"	0	1	286784	"p583653"	"high"	"left"	"A11UBOE8N877JJ"	26	1	36	"lib/images/tl_0_150.jpg"	"L"	"left"	"tl_0_150.jpg"	515	298	832	379	251937	0	"right"	149	348	1	""	"I looked for patterns"	"category A was more \L\ shaped, B's were usually crosses."	12.0519333333333	723.116	26	2	0.5	"tl_0_150.jpg"
284479	"test-sort"	0	1	286784	"p583653"	"high"	"left"	"A11UBOE8N877JJ"	26	0	37	"lib/images/tl_0_150.jpg"	"L"	"left"	"tl_0_150.jpg"	515	298	149	348	257969	1	"left"	149	348	1	""	"I looked for patterns"	"category A was more \L\ shaped, B's were usually crosses."	12.0519333333333	723.116	26	2	0.5	"tl_0_150.jpg"
284479	"test-sort"	0	1	286784	"p583653"	"high"	"left"	"A11UBOE8N877JJ"	27	1	38	"lib/images/tl_40_90.jpg"	"T"	"right"	"tl_40_90.jpg"	515	298	881	348	261206	1	"right"	881	348	1	""	"I looked for patterns"	"category A was more \L\ shaped, B's were usually crosses."	12.0519333333333	723.116	27	2	0.5	"tl_40_90.jpg"
284479	"test-sort"	0	1	286784	"p583653"	"high"	"left"	"A11UBOE8N877JJ"	28	1	39	"lib/images/tl_10_60.jpg"	"L"	"left"	"tl_10_60.jpg"	515	298	149	348	264630	1	"left"	149	348	1	""	"I looked for patterns"	"category A was more \L\ shaped, B's were usually crosses."	12.0519333333333	723.116	28	2	0.5	"tl_10_60.jpg"
284479	"test-sort"	0	1	286784	"p583653"	"high"	"left"	"A11UBOE8N877JJ"	29	1	40	"lib/images/tl_20_150.jpg"	"L"	"left"	"tl_20_150.jpg"	515	298	834	333	267826	0	"right"	149	348	1	""	"I looked for patterns"	"category A was more \L\ shaped, B's were usually crosses."	12.0519333333333	723.116	29	2	0.5	"tl_20_150.jpg"
284479	"test-sort"	0	1	286784	"p583653"	"high"	"left"	"A11UBOE8N877JJ"	29	0	41	"lib/images/tl_20_150.jpg"	"L"	"left"	"tl_20_150.jpg"	515	298	797	387	273413	0	"right"	149	348	1	""	"I looked for patterns"	"category A was more \L\ shaped, B's were usually crosses."	12.0519333333333	723.116	29	2	0.5	"tl_20_150.jpg"
284479	"test-sort"	0	1	286784	"p583653"	"high"	"left"	"A11UBOE8N877JJ"	29	0	42	"lib/images/tl_20_150.jpg"	"L"	"left"	"tl_20_150.jpg"	515	298	149	348	278522	1	"left"	149	348	1	""	"I looked for patterns"	"category A was more \L\ shaped, B's were usually crosses."	12.0519333333333	723.116	29	2	0.5	"tl_20_150.jpg"
284479	"test-sort"	0	1	286784	"p583653"	"high"	"left"	"A11UBOE8N877JJ"	30	1	43	"lib/images/tl_50_90.jpg"	"T"	"right"	"tl_50_90.jpg"	515	298	881	348	281976	1	"right"	881	348	1	""	"I looked for patterns"	"category A was more \L\ shaped, B's were usually crosses."	12.0519333333333	723.116	30	2	0.5	"tl_50_90.jpg"
358087	"test-sort"	0	3	648080	"p583653"	"high"	"left"	"A11UBOE8N877JJ"	1	1	1	"lib/images/tl_0_120.jpg"	"L"	"left"	"tl_0_120.jpg"	515	298	879	362	5633	0	"right"	149	348	2	""	"I looked for patterns"	"category A was more \L\ shaped, B's were usually crosses."	12.0519333333333	723.116	31	3	0.5	"tl_0_120.jpg"
358087	"test-sort"	0	3	648080	"p583653"	"high"	"left"	"A11UBOE8N877JJ"	1	0	2	"lib/images/tl_0_120.jpg"	"L"	"left"	"tl_0_120.jpg"	515	298	149	348	11092	1	"left"	149	348	2	""	"I looked for patterns"	"category A was more \L\ shaped, B's were usually crosses."	12.0519333333333	723.116	31	3	0.5	"tl_0_120.jpg"
358087	"test-sort"	0	3	648080	"p583653"	"high"	"left"	"A11UBOE8N877JJ"	2	1	3	"lib/images/tl_30_30.jpg"	"T"	"right"	"tl_30_30.jpg"	515	298	881	348	16176	1	"right"	881	348	2	""	"I looked for patterns"	"category A was more \L\ shaped, B's were usually crosses."	12.0519333333333	723.116	32	3	0.5	"tl_30_30.jpg"
358087	"test-sort"	0	3	648080	"p583653"	"high"	"left"	"A11UBOE8N877JJ"	3	1	4	"lib/images/tl_50_60.jpg"	"T"	"right"	"tl_50_60.jpg"	515	298	881	348	19668	1	"right"	881	348	2	""	"I looked for patterns"	"category A was more \L\ shaped, B's were usually crosses."	12.0519333333333	723.116	33	3	0.5	"tl_50_60.jpg"
358087	"test-sort"	0	3	648080	"p583653"	"high"	"left"	"A11UBOE8N877JJ"	4	1	5	"lib/images/tl_40_30.jpg"	"T"	"right"	"tl_40_30.jpg"	515	298	881	348	23394	1	"right"	881	348	2	""	"I looked for patterns"	"category A was more \L\ shaped, B's were usually crosses."	12.0519333333333	723.116	34	3	0.5	"tl_40_30.jpg"
358087	"test-sort"	0	3	648080	"p583653"	"high"	"left"	"A11UBOE8N877JJ"	5	1	6	"lib/images/tl_10_150.jpg"	"L"	"left"	"tl_10_150.jpg"	515	298	834	315	72696	0	"right"	149	348	2	""	"I looked for patterns"	"category A was more \L\ shaped, B's were usually crosses."	12.0519333333333	723.116	35	3	0.5	"tl_10_150.jpg"
358087	"test-sort"	0	3	648080	"p583653"	"high"	"left"	"A11UBOE8N877JJ"	5	0	7	"lib/images/tl_10_150.jpg"	"L"	"left"	"tl_10_150.jpg"	515	298	149	348	79542	1	"left"	149	348	2	""	"I looked for patterns"	"category A was more \L\ shaped, B's were usually crosses."	12.0519333333333	723.116	35	3	0.5	"tl_10_150.jpg"
358087	"test-sort"	0	3	648080	"p583653"	"high"	"left"	"A11UBOE8N877JJ"	6	1	8	"lib/images/tl_20_90.jpg"	"L"	"left"	"tl_20_90.jpg"	515	298	885	376	82772	0	"right"	149	348	2	""	"I looked for patterns"	"category A was more \L\ shaped, B's were usually crosses."	12.0519333333333	723.116	36	3	0.5	"tl_20_90.jpg"
358087	"test-sort"	0	3	648080	"p583653"	"high"	"left"	"A11UBOE8N877JJ"	6	0	9	"lib/images/tl_20_90.jpg"	"L"	"left"	"tl_20_90.jpg"	515	298	149	348	89297	1	"left"	149	348	2	""	"I looked for patterns"	"category A was more \L\ shaped, B's were usually crosses."	12.0519333333333	723.116	36	3	0.5	"tl_20_90.jpg"
358087	"test-sort"	0	3	648080	"p583653"	"high"	"left"	"A11UBOE8N877JJ"	7	1	10	"lib/images/tl_30_120.jpg"	"L"	"left"	"tl_30_120.jpg"	515	298	875	423	92996	0	"right"	149	348	2	""	"I looked for patterns"	"category A was more \L\ shaped, B's were usually crosses."	12.0519333333333	723.116	37	3	0.5	"tl_30_120.jpg"
358087	"test-sort"	0	3	648080	"p583653"	"high"	"left"	"A11UBOE8N877JJ"	7	0	11	"lib/images/tl_30_120.jpg"	"L"	"left"	"tl_30_120.jpg"	515	298	149	348	98884	1	"left"	149	348	2	""	"I looked for patterns"	"category A was more \L\ shaped, B's were usually crosses."	12.0519333333333	723.116	37	3	0.5	"tl_30_120.jpg"
358087	"test-sort"	0	3	648080	"p583653"	"high"	"left"	"A11UBOE8N877JJ"	8	1	12	"lib/images/tl_50_30.jpg"	"T"	"right"	"tl_50_30.jpg"	515	298	158	370	103155	0	"left"	881	348	2	""	"I looked for patterns"	"category A was more \L\ shaped, B's were usually crosses."	12.0519333333333	723.116	38	3	0.5	"tl_50_30.jpg"
358087	"test-sort"	0	3	648080	"p583653"	"high"	"left"	"A11UBOE8N877JJ"	8	0	13	"lib/images/tl_50_30.jpg"	"T"	"right"	"tl_50_30.jpg"	515	298	881	348	120117	1	"right"	881	348	2	""	"I looked for patterns"	"category A was more \L\ shaped, B's were usually crosses."	12.0519333333333	723.116	38	3	0.5	"tl_50_30.jpg"
358087	"test-sort"	0	3	648080	"p583653"	"high"	"left"	"A11UBOE8N877JJ"	9	1	14	"lib/images/tl_40_150.jpg"	"L"	"left"	"tl_40_150.jpg"	515	298	838	354	124086	0	"right"	149	348	2	""	"I looked for patterns"	"category A was more \L\ shaped, B's were usually crosses."	12.0519333333333	723.116	39	3	0.5	"tl_40_150.jpg"
358087	"test-sort"	0	3	648080	"p583653"	"high"	"left"	"A11UBOE8N877JJ"	9	0	15	"lib/images/tl_40_150.jpg"	"L"	"left"	"tl_40_150.jpg"	515	298	149	348	151923	1	"left"	149	348	2	""	"I looked for patterns"	"category A was more \L\ shaped, B's were usually crosses."	12.0519333333333	723.116	39	3	0.5	"tl_40_150.jpg"
358087	"test-sort"	0	3	648080	"p583653"	"high"	"left"	"A11UBOE8N877JJ"	10	1	16	"lib/images/tl_30_60.jpg"	"T"	"right"	"tl_30_60.jpg"	515	298	201	353	155055	0	"left"	881	348	2	""	"I looked for patterns"	"category A was more \L\ shaped, B's were usually crosses."	12.0519333333333	723.116	40	3	0.5	"tl_30_60.jpg"
358087	"test-sort"	0	3	648080	"p583653"	"high"	"left"	"A11UBOE8N877JJ"	10	0	17	"lib/images/tl_30_60.jpg"	"T"	"right"	"tl_30_60.jpg"	515	298	881	348	162096	1	"right"	881	348	2	""	"I looked for patterns"	"category A was more \L\ shaped, B's were usually crosses."	12.0519333333333	723.116	40	3	0.5	"tl_30_60.jpg"
358087	"test-sort"	0	3	648080	"p583653"	"high"	"left"	"A11UBOE8N877JJ"	11	1	18	"lib/images/tl_20_0.jpg"	"T"	"right"	"tl_20_0.jpg"	515	298	119	343	165629	0	"left"	881	348	2	""	"I looked for patterns"	"category A was more \L\ shaped, B's were usually crosses."	12.0519333333333	723.116	41	3	0.5	"tl_20_0.jpg"
358087	"test-sort"	0	3	648081	"p583653"	"high"	"left"	"A11UBOE8N877JJ"	11	0	19	"lib/images/tl_20_0.jpg"	"T"	"right"	"tl_20_0.jpg"	515	298	881	348	171411	1	"right"	881	348	2	""	"I looked for patterns"	"category A was more \L\ shaped, B's were usually crosses."	12.0519333333333	723.116	41	3	0.5	"tl_20_0.jpg"
358087	"test-sort"	0	3	648081	"p583653"	"high"	"left"	"A11UBOE8N877JJ"	12	1	20	"lib/images/tl_50_120.jpg"	"T"	"right"	"tl_50_120.jpg"	515	298	211	305	232664	0	"left"	881	348	2	""	"I looked for patterns"	"category A was more \L\ shaped, B's were usually crosses."	12.0519333333333	723.116	42	3	0.5	"tl_50_120.jpg"
358087	"test-sort"	0	3	648081	"p583653"	"high"	"left"	"A11UBOE8N877JJ"	12	0	21	"lib/images/tl_50_120.jpg"	"T"	"right"	"tl_50_120.jpg"	515	298	881	348	237827	1	"right"	881	348	2	""	"I looked for patterns"	"category A was more \L\ shaped, B's were usually crosses."	12.0519333333333	723.116	42	3	0.5	"tl_50_120.jpg"
358087	"test-sort"	0	3	648081	"p583653"	"high"	"left"	"A11UBOE8N877JJ"	13	1	22	"lib/images/tl_0_90.jpg"	"L"	"left"	"tl_0_90.jpg"	515	298	149	348	240704	1	"left"	149	348	2	""	"I looked for patterns"	"category A was more \L\ shaped, B's were usually crosses."	12.0519333333333	723.116	43	3	0.5	"tl_0_90.jpg"
358087	"test-sort"	0	3	648081	"p583653"	"high"	"left"	"A11UBOE8N877JJ"	14	1	23	"lib/images/tl_40_90.jpg"	"T"	"right"	"tl_40_90.jpg"	515	298	881	348	243258	1	"right"	881	348	2	""	"I looked for patterns"	"category A was more \L\ shaped, B's were usually crosses."	12.0519333333333	723.116	44	3	0.5	"tl_40_90.jpg"
358087	"test-sort"	0	3	648081	"p583653"	"high"	"left"	"A11UBOE8N877JJ"	15	1	24	"lib/images/tl_10_120.jpg"	"L"	"left"	"tl_10_120.jpg"	515	298	861	366	245975	0	"right"	149	348	2	""	"I looked for patterns"	"category A was more \L\ shaped, B's were usually crosses."	12.0519333333333	723.116	45	3	0.5	"tl_10_120.jpg"
358087	"test-sort"	0	3	648081	"p583653"	"high"	"left"	"A11UBOE8N877JJ"	15	0	25	"lib/images/tl_10_120.jpg"	"L"	"left"	"tl_10_120.jpg"	515	298	149	348	251129	1	"left"	149	348	2	""	"I looked for patterns"	"category A was more \L\ shaped, B's were usually crosses."	12.0519333333333	723.116	45	3	0.5	"tl_10_120.jpg"
358087	"test-sort"	0	3	648081	"p583653"	"high"	"left"	"A11UBOE8N877JJ"	16	1	26	"lib/images/tl_20_30.jpg"	"T"	"right"	"tl_20_30.jpg"	515	298	214	302	253666	0	"left"	881	348	2	""	"I looked for patterns"	"category A was more \L\ shaped, B's were usually crosses."	12.0519333333333	723.116	46	4	0.5	"tl_20_30.jpg"
358087	"test-sort"	0	3	648081	"p583653"	"high"	"left"	"A11UBOE8N877JJ"	16	0	27	"lib/images/tl_20_30.jpg"	"T"	"right"	"tl_20_30.jpg"	515	298	881	348	258920	1	"right"	881	348	2	""	"I looked for patterns"	"category A was more \L\ shaped, B's were usually crosses."	12.0519333333333	723.116	46	4	0.5	"tl_20_30.jpg"
358087	"test-sort"	0	3	648081	"p583653"	"high"	"left"	"A11UBOE8N877JJ"	17	1	28	"lib/images/tl_30_0.jpg"	"T"	"right"	"tl_30_0.jpg"	515	298	881	348	262097	1	"right"	881	348	2	""	"I looked for patterns"	"category A was more \L\ shaped, B's were usually crosses."	12.0519333333333	723.116	47	4	0.5	"tl_30_0.jpg"
358087	"test-sort"	0	3	648081	"p583653"	"high"	"left"	"A11UBOE8N877JJ"	18	1	29	"lib/images/tl_0_30.jpg"	"L"	"left"	"tl_0_30.jpg"	515	298	149	348	265917	1	"left"	149	348	2	""	"I looked for patterns"	"category A was more \L\ shaped, B's were usually crosses."	12.0519333333333	723.116	48	4	0.5	"tl_0_30.jpg"
358087	"test-sort"	0	3	648081	"p583653"	"high"	"left"	"A11UBOE8N877JJ"	19	1	30	"lib/images/tl_20_150.jpg"	"L"	"left"	"tl_20_150.jpg"	515	298	149	348	269708	1	"left"	149	348	2	""	"I looked for patterns"	"category A was more \L\ shaped, B's were usually crosses."	12.0519333333333	723.116	49	4	0.5	"tl_20_150.jpg"
358087	"test-sort"	0	3	648081	"p583653"	"high"	"left"	"A11UBOE8N877JJ"	20	1	31	"lib/images/tl_0_60.jpg"	"L"	"left"	"tl_0_60.jpg"	515	298	149	348	272430	1	"left"	149	348	2	""	"I looked for patterns"	"category A was more \L\ shaped, B's were usually crosses."	12.0519333333333	723.116	50	4	0.5	"tl_0_60.jpg"
358087	"test-sort"	0	3	648081	"p583653"	"high"	"left"	"A11UBOE8N877JJ"	21	1	32	"lib/images/tl_30_150.jpg"	"L"	"left"	"tl_30_150.jpg"	515	298	866	325	276134	0	"right"	149	348	2	""	"I looked for patterns"	"category A was more \L\ shaped, B's were usually crosses."	12.0519333333333	723.116	51	4	0.5	"tl_30_150.jpg"
358087	"test-sort"	0	3	648081	"p583653"	"high"	"left"	"A11UBOE8N877JJ"	21	0	33	"lib/images/tl_30_150.jpg"	"L"	"left"	"tl_30_150.jpg"	515	298	149	348	282844	1	"left"	149	348	2	""	"I looked for patterns"	"category A was more \L\ shaped, B's were usually crosses."	12.0519333333333	723.116	51	4	0.5	"tl_30_150.jpg"
358087	"test-sort"	0	3	648081	"p583653"	"high"	"left"	"A11UBOE8N877JJ"	22	1	34	"lib/images/tl_20_120.jpg"	"L"	"left"	"tl_20_120.jpg"	515	298	991	325	285411	0	"right"	149	348	2	""	"I looked for patterns"	"category A was more \L\ shaped, B's were usually crosses."	12.0519333333333	723.116	52	4	0.5	"tl_20_120.jpg"
358087	"test-sort"	0	3	648081	"p583653"	"high"	"left"	"A11UBOE8N877JJ"	22	0	35	"lib/images/tl_20_120.jpg"	"L"	"left"	"tl_20_120.jpg"	515	298	149	348	290658	1	"left"	149	348	2	""	"I looked for patterns"	"category A was more \L\ shaped, B's were usually crosses."	12.0519333333333	723.116	52	4	0.5	"tl_20_120.jpg"
358087	"test-sort"	0	3	648081	"p583653"	"high"	"left"	"A11UBOE8N877JJ"	23	1	36	"lib/images/tl_0_150.jpg"	"L"	"left"	"tl_0_150.jpg"	515	298	149	348	294637	1	"left"	149	348	2	""	"I looked for patterns"	"category A was more \L\ shaped, B's were usually crosses."	12.0519333333333	723.116	53	4	0.5	"tl_0_150.jpg"
358087	"test-sort"	0	3	648081	"p583653"	"high"	"left"	"A11UBOE8N877JJ"	24	1	37	"lib/images/tl_40_0.jpg"	"T"	"right"	"tl_40_0.jpg"	515	298	143	337	298497	0	"left"	881	348	2	""	"I looked for patterns"	"category A was more \L\ shaped, B's were usually crosses."	12.0519333333333	723.116	54	4	0.5	"tl_40_0.jpg"
358087	"test-sort"	0	3	648081	"p583653"	"high"	"left"	"A11UBOE8N877JJ"	24	0	38	"lib/images/tl_40_0.jpg"	"T"	"right"	"tl_40_0.jpg"	515	298	881	348	304597	1	"right"	881	348	2	""	"I looked for patterns"	"category A was more \L\ shaped, B's were usually crosses."	12.0519333333333	723.116	54	4	0.5	"tl_40_0.jpg"
358087	"test-sort"	0	3	648081	"p583653"	"high"	"left"	"A11UBOE8N877JJ"	25	1	39	"lib/images/tl_40_60.jpg"	"T"	"right"	"tl_40_60.jpg"	515	298	881	348	311320	1	"right"	881	348	2	""	"I looked for patterns"	"category A was more \L\ shaped, B's were usually crosses."	12.0519333333333	723.116	55	4	0.5	"tl_40_60.jpg"
358087	"test-sort"	0	3	648081	"p583653"	"high"	"left"	"A11UBOE8N877JJ"	26	1	40	"lib/images/tl_10_90.jpg"	"L"	"left"	"tl_10_90.jpg"	515	298	851	379	315791	0	"right"	149	348	2	""	"I looked for patterns"	"category A was more \L\ shaped, B's were usually crosses."	12.0519333333333	723.116	56	4	0.5	"tl_10_90.jpg"
358087	"test-sort"	0	3	648081	"p583653"	"high"	"left"	"A11UBOE8N877JJ"	26	0	41	"lib/images/tl_10_90.jpg"	"L"	"left"	"tl_10_90.jpg"	515	298	149	348	321614	1	"left"	149	348	2	""	"I looked for patterns"	"category A was more \L\ shaped, B's were usually crosses."	12.0519333333333	723.116	56	4	0.5	"tl_10_90.jpg"
358087	"test-sort"	0	3	648081	"p583653"	"high"	"left"	"A11UBOE8N877JJ"	27	1	42	"lib/images/tl_10_0.jpg"	"T"	"right"	"tl_10_0.jpg"	515	298	93	301	324643	0	"left"	881	348	2	""	"I looked for patterns"	"category A was more \L\ shaped, B's were usually crosses."	12.0519333333333	723.116	57	4	0.5	"tl_10_0.jpg"
358087	"test-sort"	0	3	648081	"p583653"	"high"	"left"	"A11UBOE8N877JJ"	27	0	43	"lib/images/tl_10_0.jpg"	"T"	"right"	"tl_10_0.jpg"	515	298	881	348	330459	1	"right"	881	348	2	""	"I looked for patterns"	"category A was more \L\ shaped, B's were usually crosses."	12.0519333333333	723.116	57	4	0.5	"tl_10_0.jpg"
358087	"test-sort"	0	3	648081	"p583653"	"high"	"left"	"A11UBOE8N877JJ"	28	1	44	"lib/images/tl_50_0.jpg"	"T"	"right"	"tl_50_0.jpg"	515	298	192	321	335789	0	"left"	881	348	2	""	"I looked for patterns"	"category A was more \L\ shaped, B's were usually crosses."	12.0519333333333	723.116	58	4	0.5	"tl_50_0.jpg"
358087	"test-sort"	0	3	648081	"p583653"	"high"	"left"	"A11UBOE8N877JJ"	28	0	45	"lib/images/tl_50_0.jpg"	"T"	"right"	"tl_50_0.jpg"	515	298	881	348	342002	1	"right"	881	348	2	""	"I looked for patterns"	"category A was more \L\ shaped, B's were usually crosses."	12.0519333333333	723.116	58	4	0.5	"tl_50_0.jpg"
358087	"test-sort"	0	3	648081	"p583653"	"high"	"left"	"A11UBOE8N877JJ"	29	1	46	"lib/images/tl_50_90.jpg"	"T"	"right"	"tl_50_90.jpg"	515	298	139	351	345625	0	"left"	881	348	2	""	"I looked for patterns"	"category A was more \L\ shaped, B's were usually crosses."	12.0519333333333	723.116	59	4	0.5	"tl_50_90.jpg"
358087	"test-sort"	0	3	648081	"p583653"	"high"	"left"	"A11UBOE8N877JJ"	29	0	47	"lib/images/tl_50_90.jpg"	"T"	"right"	"tl_50_90.jpg"	515	298	881	348	352565	1	"right"	881	348	2	""	"I looked for patterns"	"category A was more \L\ shaped, B's were usually crosses."	12.0519333333333	723.116	59	4	0.5	"tl_50_90.jpg"
358087	"test-sort"	0	3	648081	"p583653"	"high"	"left"	"A11UBOE8N877JJ"	30	1	48	"lib/images/tl_10_60.jpg"	"L"	"left"	"tl_10_60.jpg"	515	298	149	348	355579	1	"left"	149	348	2	""	"I looked for patterns"	"category A was more \L\ shaped, B's were usually crosses."	12.0519333333333	723.116	60	4	0.5	"tl_10_60.jpg"
132786	"test-sort"	0	1	148283	"p363852"	"high"	"left"	"A2ETY1O927Z1IF"	1	1	1	"lib/images/tl_30_60.jpg"	"T"	"right"	"tl_30_60.jpg"	515	298	168	363	3708	0	"left"	881	348	1	""	"For category A if the shapes were shaped like an L it usually went to category A and for category B were usually t shape. So If the horizontal line was closer to the bottom of the vertical end it usually went to Category A. If the horizontal line was near the top or makes a t shape it went to B"	"Category A was L shaped and Category b was t shapes "	7.73515	464.109	1	1	0.5	"tl_30_60.jpg"
132786	"test-sort"	0	1	148283	"p363852"	"high"	"left"	"A2ETY1O927Z1IF"	1	0	2	"lib/images/tl_30_60.jpg"	"T"	"right"	"tl_30_60.jpg"	515	298	881	348	8904	1	"right"	881	348	1	""	"For category A if the shapes were shaped like an L it usually went to category A and for category B were usually t shape. So If the horizontal line was closer to the bottom of the vertical end it usually went to Category A. If the horizontal line was near the top or makes a t shape it went to B"	"Category A was L shaped and Category b was t shapes "	7.73515	464.109	1	1	0.5	"tl_30_60.jpg"
132786	"test-sort"	0	1	148283	"p363852"	"high"	"left"	"A2ETY1O927Z1IF"	2	1	3	"lib/images/tl_10_0.jpg"	"T"	"right"	"tl_10_0.jpg"	515	298	227	347	12488	0	"left"	881	348	1	""	"For category A if the shapes were shaped like an L it usually went to category A and for category B were usually t shape. So If the horizontal line was closer to the bottom of the vertical end it usually went to Category A. If the horizontal line was near the top or makes a t shape it went to B"	"Category A was L shaped and Category b was t shapes "	7.73515	464.109	2	1	0.5	"tl_10_0.jpg"
132786	"test-sort"	0	1	148283	"p363852"	"high"	"left"	"A2ETY1O927Z1IF"	2	0	4	"lib/images/tl_10_0.jpg"	"T"	"right"	"tl_10_0.jpg"	515	298	881	348	17497	1	"right"	881	348	1	""	"For category A if the shapes were shaped like an L it usually went to category A and for category B were usually t shape. So If the horizontal line was closer to the bottom of the vertical end it usually went to Category A. If the horizontal line was near the top or makes a t shape it went to B"	"Category A was L shaped and Category b was t shapes "	7.73515	464.109	2	1	0.5	"tl_10_0.jpg"
132786	"test-sort"	0	1	148283	"p363852"	"high"	"left"	"A2ETY1O927Z1IF"	3	1	5	"lib/images/tl_20_0.jpg"	"T"	"right"	"tl_20_0.jpg"	515	298	881	348	20070	1	"right"	881	348	1	""	"For category A if the shapes were shaped like an L it usually went to category A and for category B were usually t shape. So If the horizontal line was closer to the bottom of the vertical end it usually went to Category A. If the horizontal line was near the top or makes a t shape it went to B"	"Category A was L shaped and Category b was t shapes "	7.73515	464.109	3	1	0.5	"tl_20_0.jpg"
132786	"test-sort"	0	1	148283	"p363852"	"high"	"left"	"A2ETY1O927Z1IF"	4	1	6	"lib/images/tl_40_0.jpg"	"T"	"right"	"tl_40_0.jpg"	515	298	881	348	22464	1	"right"	881	348	1	""	"For category A if the shapes were shaped like an L it usually went to category A and for category B were usually t shape. So If the horizontal line was closer to the bottom of the vertical end it usually went to Category A. If the horizontal line was near the top or makes a t shape it went to B"	"Category A was L shaped and Category b was t shapes "	7.73515	464.109	4	1	0.5	"tl_40_0.jpg"
132786	"test-sort"	0	1	148283	"p363852"	"high"	"left"	"A2ETY1O927Z1IF"	5	1	7	"lib/images/tl_30_30.jpg"	"T"	"right"	"tl_30_30.jpg"	515	298	881	348	25128	1	"right"	881	348	1	""	"For category A if the shapes were shaped like an L it usually went to category A and for category B were usually t shape. So If the horizontal line was closer to the bottom of the vertical end it usually went to Category A. If the horizontal line was near the top or makes a t shape it went to B"	"Category A was L shaped and Category b was t shapes "	7.73515	464.109	5	1	0.5	"tl_30_30.jpg"
132786	"test-sort"	0	1	148283	"p363852"	"high"	"left"	"A2ETY1O927Z1IF"	6	1	8	"lib/images/tl_40_90.jpg"	"T"	"right"	"tl_40_90.jpg"	515	298	197	322	27749	0	"left"	881	348	1	""	"For category A if the shapes were shaped like an L it usually went to category A and for category B were usually t shape. So If the horizontal line was closer to the bottom of the vertical end it usually went to Category A. If the horizontal line was near the top or makes a t shape it went to B"	"Category A was L shaped and Category b was t shapes "	7.73515	464.109	6	1	0.5	"tl_40_90.jpg"
132786	"test-sort"	0	1	148283	"p363852"	"high"	"left"	"A2ETY1O927Z1IF"	6	0	9	"lib/images/tl_40_90.jpg"	"T"	"right"	"tl_40_90.jpg"	515	298	881	348	32637	1	"right"	881	348	1	""	"For category A if the shapes were shaped like an L it usually went to category A and for category B were usually t shape. So If the horizontal line was closer to the bottom of the vertical end it usually went to Category A. If the horizontal line was near the top or makes a t shape it went to B"	"Category A was L shaped and Category b was t shapes "	7.73515	464.109	6	1	0.5	"tl_40_90.jpg"
132786	"test-sort"	0	1	148283	"p363852"	"high"	"left"	"A2ETY1O927Z1IF"	7	1	10	"lib/images/tl_50_0.jpg"	"T"	"right"	"tl_50_0.jpg"	515	298	881	348	35635	1	"right"	881	348	1	""	"For category A if the shapes were shaped like an L it usually went to category A and for category B were usually t shape. So If the horizontal line was closer to the bottom of the vertical end it usually went to Category A. If the horizontal line was near the top or makes a t shape it went to B"	"Category A was L shaped and Category b was t shapes "	7.73515	464.109	7	1	0.5	"tl_50_0.jpg"
132786	"test-sort"	0	1	148283	"p363852"	"high"	"left"	"A2ETY1O927Z1IF"	8	1	11	"lib/images/tl_30_150.jpg"	"L"	"left"	"tl_30_150.jpg"	515	298	859	358	38130	0	"right"	149	348	1	""	"For category A if the shapes were shaped like an L it usually went to category A and for category B were usually t shape. So If the horizontal line was closer to the bottom of the vertical end it usually went to Category A. If the horizontal line was near the top or makes a t shape it went to B"	"Category A was L shaped and Category b was t shapes "	7.73515	464.109	8	1	0.5	"tl_30_150.jpg"
132786	"test-sort"	0	1	148283	"p363852"	"high"	"left"	"A2ETY1O927Z1IF"	8	0	12	"lib/images/tl_30_150.jpg"	"L"	"left"	"tl_30_150.jpg"	515	298	149	348	43039	1	"left"	149	348	1	""	"For category A if the shapes were shaped like an L it usually went to category A and for category B were usually t shape. So If the horizontal line was closer to the bottom of the vertical end it usually went to Category A. If the horizontal line was near the top or makes a t shape it went to B"	"Category A was L shaped and Category b was t shapes "	7.73515	464.109	8	1	0.5	"tl_30_150.jpg"
132786	"test-sort"	0	1	148283	"p363852"	"high"	"left"	"A2ETY1O927Z1IF"	9	1	13	"lib/images/tl_10_60.jpg"	"L"	"left"	"tl_10_60.jpg"	515	298	829	323	46072	0	"right"	149	348	1	""	"For category A if the shapes were shaped like an L it usually went to category A and for category B were usually t shape. So If the horizontal line was closer to the bottom of the vertical end it usually went to Category A. If the horizontal line was near the top or makes a t shape it went to B"	"Category A was L shaped and Category b was t shapes "	7.73515	464.109	9	1	0.5	"tl_10_60.jpg"
132786	"test-sort"	0	1	148283	"p363852"	"high"	"left"	"A2ETY1O927Z1IF"	9	0	14	"lib/images/tl_10_60.jpg"	"L"	"left"	"tl_10_60.jpg"	515	298	149	348	52433	1	"left"	149	348	1	""	"For category A if the shapes were shaped like an L it usually went to category A and for category B were usually t shape. So If the horizontal line was closer to the bottom of the vertical end it usually went to Category A. If the horizontal line was near the top or makes a t shape it went to B"	"Category A was L shaped and Category b was t shapes "	7.73515	464.109	9	1	0.5	"tl_10_60.jpg"
132786	"test-sort"	0	1	148283	"p363852"	"high"	"left"	"A2ETY1O927Z1IF"	10	1	15	"lib/images/tl_50_90.jpg"	"T"	"right"	"tl_50_90.jpg"	515	298	213	367	55159	0	"left"	881	348	1	""	"For category A if the shapes were shaped like an L it usually went to category A and for category B were usually t shape. So If the horizontal line was closer to the bottom of the vertical end it usually went to Category A. If the horizontal line was near the top or makes a t shape it went to B"	"Category A was L shaped and Category b was t shapes "	7.73515	464.109	10	1	0.5	"tl_50_90.jpg"
132786	"test-sort"	0	1	148283	"p363852"	"high"	"left"	"A2ETY1O927Z1IF"	10	0	16	"lib/images/tl_50_90.jpg"	"T"	"right"	"tl_50_90.jpg"	515	298	881	348	60073	1	"right"	881	348	1	""	"For category A if the shapes were shaped like an L it usually went to category A and for category B were usually t shape. So If the horizontal line was closer to the bottom of the vertical end it usually went to Category A. If the horizontal line was near the top or makes a t shape it went to B"	"Category A was L shaped and Category b was t shapes "	7.73515	464.109	10	1	0.5	"tl_50_90.jpg"
132786	"test-sort"	0	1	148283	"p363852"	"high"	"left"	"A2ETY1O927Z1IF"	11	1	17	"lib/images/tl_40_60.jpg"	"T"	"right"	"tl_40_60.jpg"	515	298	881	348	63304	1	"right"	881	348	1	""	"For category A if the shapes were shaped like an L it usually went to category A and for category B were usually t shape. So If the horizontal line was closer to the bottom of the vertical end it usually went to Category A. If the horizontal line was near the top or makes a t shape it went to B"	"Category A was L shaped and Category b was t shapes "	7.73515	464.109	11	1	0.5	"tl_40_60.jpg"
132786	"test-sort"	0	1	148284	"p363852"	"high"	"left"	"A2ETY1O927Z1IF"	12	1	18	"lib/images/tl_20_150.jpg"	"L"	"left"	"tl_20_150.jpg"	515	298	149	348	65881	1	"left"	149	348	1	""	"For category A if the shapes were shaped like an L it usually went to category A and for category B were usually t shape. So If the horizontal line was closer to the bottom of the vertical end it usually went to Category A. If the horizontal line was near the top or makes a t shape it went to B"	"Category A was L shaped and Category b was t shapes "	7.73515	464.109	12	1	0.5	"tl_20_150.jpg"
132786	"test-sort"	0	1	148284	"p363852"	"high"	"left"	"A2ETY1O927Z1IF"	13	1	19	"lib/images/tl_50_60.jpg"	"T"	"right"	"tl_50_60.jpg"	515	298	881	348	68479	1	"right"	881	348	1	""	"For category A if the shapes were shaped like an L it usually went to category A and for category B were usually t shape. So If the horizontal line was closer to the bottom of the vertical end it usually went to Category A. If the horizontal line was near the top or makes a t shape it went to B"	"Category A was L shaped and Category b was t shapes "	7.73515	464.109	13	1	0.5	"tl_50_60.jpg"
132786	"test-sort"	0	1	148284	"p363852"	"high"	"left"	"A2ETY1O927Z1IF"	14	1	20	"lib/images/tl_20_90.jpg"	"L"	"left"	"tl_20_90.jpg"	515	298	149	348	71247	1	"left"	149	348	1	""	"For category A if the shapes were shaped like an L it usually went to category A and for category B were usually t shape. So If the horizontal line was closer to the bottom of the vertical end it usually went to Category A. If the horizontal line was near the top or makes a t shape it went to B"	"Category A was L shaped and Category b was t shapes "	7.73515	464.109	14	1	0.5	"tl_20_90.jpg"
132786	"test-sort"	0	1	148284	"p363852"	"high"	"left"	"A2ETY1O927Z1IF"	15	1	21	"lib/images/tl_0_150.jpg"	"L"	"left"	"tl_0_150.jpg"	515	298	149	348	73686	1	"left"	149	348	1	""	"For category A if the shapes were shaped like an L it usually went to category A and for category B were usually t shape. So If the horizontal line was closer to the bottom of the vertical end it usually went to Category A. If the horizontal line was near the top or makes a t shape it went to B"	"Category A was L shaped and Category b was t shapes "	7.73515	464.109	15	1	0.5	"tl_0_150.jpg"
132786	"test-sort"	0	1	148284	"p363852"	"high"	"left"	"A2ETY1O927Z1IF"	16	1	22	"lib/images/tl_0_90.jpg"	"L"	"left"	"tl_0_90.jpg"	515	298	149	348	76209	1	"left"	149	348	1	""	"For category A if the shapes were shaped like an L it usually went to category A and for category B were usually t shape. So If the horizontal line was closer to the bottom of the vertical end it usually went to Category A. If the horizontal line was near the top or makes a t shape it went to B"	"Category A was L shaped and Category b was t shapes "	7.73515	464.109	16	2	0.5	"tl_0_90.jpg"
132786	"test-sort"	0	1	148284	"p363852"	"high"	"left"	"A2ETY1O927Z1IF"	17	1	23	"lib/images/tl_10_90.jpg"	"L"	"left"	"tl_10_90.jpg"	515	298	149	348	78651	1	"left"	149	348	1	""	"For category A if the shapes were shaped like an L it usually went to category A and for category B were usually t shape. So If the horizontal line was closer to the bottom of the vertical end it usually went to Category A. If the horizontal line was near the top or makes a t shape it went to B"	"Category A was L shaped and Category b was t shapes "	7.73515	464.109	17	2	0.5	"tl_10_90.jpg"
132786	"test-sort"	0	1	148284	"p363852"	"high"	"left"	"A2ETY1O927Z1IF"	18	1	24	"lib/images/tl_30_0.jpg"	"T"	"right"	"tl_30_0.jpg"	515	298	881	348	81005	1	"right"	881	348	1	""	"For category A if the shapes were shaped like an L it usually went to category A and for category B were usually t shape. So If the horizontal line was closer to the bottom of the vertical end it usually went to Category A. If the horizontal line was near the top or makes a t shape it went to B"	"Category A was L shaped and Category b was t shapes "	7.73515	464.109	18	2	0.5	"tl_30_0.jpg"
132786	"test-sort"	0	1	148284	"p363852"	"high"	"left"	"A2ETY1O927Z1IF"	19	1	25	"lib/images/tl_10_150.jpg"	"L"	"left"	"tl_10_150.jpg"	515	298	149	348	83389	1	"left"	149	348	1	""	"For category A if the shapes were shaped like an L it usually went to category A and for category B were usually t shape. So If the horizontal line was closer to the bottom of the vertical end it usually went to Category A. If the horizontal line was near the top or makes a t shape it went to B"	"Category A was L shaped and Category b was t shapes "	7.73515	464.109	19	2	0.5	"tl_10_150.jpg"
132786	"test-sort"	0	1	148284	"p363852"	"high"	"left"	"A2ETY1O927Z1IF"	20	1	26	"lib/images/tl_20_120.jpg"	"L"	"left"	"tl_20_120.jpg"	515	298	149	348	85592	1	"left"	149	348	1	""	"For category A if the shapes were shaped like an L it usually went to category A and for category B were usually t shape. So If the horizontal line was closer to the bottom of the vertical end it usually went to Category A. If the horizontal line was near the top or makes a t shape it went to B"	"Category A was L shaped and Category b was t shapes "	7.73515	464.109	20	2	0.5	"tl_20_120.jpg"
132786	"test-sort"	0	1	148284	"p363852"	"high"	"left"	"A2ETY1O927Z1IF"	21	1	27	"lib/images/tl_50_120.jpg"	"T"	"right"	"tl_50_120.jpg"	515	298	191	365	87870	0	"left"	881	348	1	""	"For category A if the shapes were shaped like an L it usually went to category A and for category B were usually t shape. So If the horizontal line was closer to the bottom of the vertical end it usually went to Category A. If the horizontal line was near the top or makes a t shape it went to B"	"Category A was L shaped and Category b was t shapes "	7.73515	464.109	21	2	0.5	"tl_50_120.jpg"
132786	"test-sort"	0	1	148284	"p363852"	"high"	"left"	"A2ETY1O927Z1IF"	21	0	28	"lib/images/tl_50_120.jpg"	"T"	"right"	"tl_50_120.jpg"	515	298	881	348	92996	1	"right"	881	348	1	""	"For category A if the shapes were shaped like an L it usually went to category A and for category B were usually t shape. So If the horizontal line was closer to the bottom of the vertical end it usually went to Category A. If the horizontal line was near the top or makes a t shape it went to B"	"Category A was L shaped and Category b was t shapes "	7.73515	464.109	21	2	0.5	"tl_50_120.jpg"
132786	"test-sort"	0	1	148284	"p363852"	"high"	"left"	"A2ETY1O927Z1IF"	22	1	29	"lib/images/tl_20_30.jpg"	"T"	"right"	"tl_20_30.jpg"	515	298	881	348	95782	1	"right"	881	348	1	""	"For category A if the shapes were shaped like an L it usually went to category A and for category B were usually t shape. So If the horizontal line was closer to the bottom of the vertical end it usually went to Category A. If the horizontal line was near the top or makes a t shape it went to B"	"Category A was L shaped and Category b was t shapes "	7.73515	464.109	22	2	0.5	"tl_20_30.jpg"
132786	"test-sort"	0	1	148284	"p363852"	"high"	"left"	"A2ETY1O927Z1IF"	23	1	30	"lib/images/tl_0_60.jpg"	"L"	"left"	"tl_0_60.jpg"	515	298	817	327	98324	0	"right"	149	348	1	""	"For category A if the shapes were shaped like an L it usually went to category A and for category B were usually t shape. So If the horizontal line was closer to the bottom of the vertical end it usually went to Category A. If the horizontal line was near the top or makes a t shape it went to B"	"Category A was L shaped and Category b was t shapes "	7.73515	464.109	23	2	0.5	"tl_0_60.jpg"
132786	"test-sort"	0	1	148284	"p363852"	"high"	"left"	"A2ETY1O927Z1IF"	23	0	31	"lib/images/tl_0_60.jpg"	"L"	"left"	"tl_0_60.jpg"	515	298	149	348	103155	1	"left"	149	348	1	""	"For category A if the shapes were shaped like an L it usually went to category A and for category B were usually t shape. So If the horizontal line was closer to the bottom of the vertical end it usually went to Category A. If the horizontal line was near the top or makes a t shape it went to B"	"Category A was L shaped and Category b was t shapes "	7.73515	464.109	23	2	0.5	"tl_0_60.jpg"
132786	"test-sort"	0	1	148284	"p363852"	"high"	"left"	"A2ETY1O927Z1IF"	24	1	32	"lib/images/tl_50_30.jpg"	"T"	"right"	"tl_50_30.jpg"	515	298	881	348	105503	1	"right"	881	348	1	""	"For category A if the shapes were shaped like an L it usually went to category A and for category B were usually t shape. So If the horizontal line was closer to the bottom of the vertical end it usually went to Category A. If the horizontal line was near the top or makes a t shape it went to B"	"Category A was L shaped and Category b was t shapes "	7.73515	464.109	24	2	0.5	"tl_50_30.jpg"
132786	"test-sort"	0	1	148284	"p363852"	"high"	"left"	"A2ETY1O927Z1IF"	25	1	33	"lib/images/tl_30_120.jpg"	"L"	"left"	"tl_30_120.jpg"	515	298	787	339	108196	0	"right"	149	348	1	""	"For category A if the shapes were shaped like an L it usually went to category A and for category B were usually t shape. So If the horizontal line was closer to the bottom of the vertical end it usually went to Category A. If the horizontal line was near the top or makes a t shape it went to B"	"Category A was L shaped and Category b was t shapes "	7.73515	464.109	25	2	0.5	"tl_30_120.jpg"
132786	"test-sort"	0	1	148284	"p363852"	"high"	"left"	"A2ETY1O927Z1IF"	25	0	34	"lib/images/tl_30_120.jpg"	"L"	"left"	"tl_30_120.jpg"	515	298	149	348	113007	1	"left"	149	348	1	""	"For category A if the shapes were shaped like an L it usually went to category A and for category B were usually t shape. So If the horizontal line was closer to the bottom of the vertical end it usually went to Category A. If the horizontal line was near the top or makes a t shape it went to B"	"Category A was L shaped and Category b was t shapes "	7.73515	464.109	25	2	0.5	"tl_30_120.jpg"
132786	"test-sort"	0	1	148284	"p363852"	"high"	"left"	"A2ETY1O927Z1IF"	26	1	35	"lib/images/tl_40_30.jpg"	"T"	"right"	"tl_40_30.jpg"	515	298	881	348	115328	1	"right"	881	348	1	""	"For category A if the shapes were shaped like an L it usually went to category A and for category B were usually t shape. So If the horizontal line was closer to the bottom of the vertical end it usually went to Category A. If the horizontal line was near the top or makes a t shape it went to B"	"Category A was L shaped and Category b was t shapes "	7.73515	464.109	26	2	0.5	"tl_40_30.jpg"
132786	"test-sort"	0	1	148284	"p363852"	"high"	"left"	"A2ETY1O927Z1IF"	27	1	36	"lib/images/tl_0_120.jpg"	"L"	"left"	"tl_0_120.jpg"	515	298	149	348	117856	1	"left"	149	348	1	""	"For category A if the shapes were shaped like an L it usually went to category A and for category B were usually t shape. So If the horizontal line was closer to the bottom of the vertical end it usually went to Category A. If the horizontal line was near the top or makes a t shape it went to B"	"Category A was L shaped and Category b was t shapes "	7.73515	464.109	27	2	0.5	"tl_0_120.jpg"
132786	"test-sort"	0	1	148284	"p363852"	"high"	"left"	"A2ETY1O927Z1IF"	28	1	37	"lib/images/tl_0_30.jpg"	"L"	"left"	"tl_0_30.jpg"	515	298	878	329	120126	0	"right"	149	348	1	""	"For category A if the shapes were shaped like an L it usually went to category A and for category B were usually t shape. So If the horizontal line was closer to the bottom of the vertical end it usually went to Category A. If the horizontal line was near the top or makes a t shape it went to B"	"Category A was L shaped and Category b was t shapes "	7.73515	464.109	28	2	0.5	"tl_0_30.jpg"
132786	"test-sort"	0	1	148284	"p363852"	"high"	"left"	"A2ETY1O927Z1IF"	28	0	38	"lib/images/tl_0_30.jpg"	"L"	"left"	"tl_0_30.jpg"	515	298	149	348	124929	1	"left"	149	348	1	""	"For category A if the shapes were shaped like an L it usually went to category A and for category B were usually t shape. So If the horizontal line was closer to the bottom of the vertical end it usually went to Category A. If the horizontal line was near the top or makes a t shape it went to B"	"Category A was L shaped and Category b was t shapes "	7.73515	464.109	28	2	0.5	"tl_0_30.jpg"
132786	"test-sort"	0	1	148284	"p363852"	"high"	"left"	"A2ETY1O927Z1IF"	29	1	39	"lib/images/tl_10_120.jpg"	"L"	"left"	"tl_10_120.jpg"	515	298	149	348	127382	1	"left"	149	348	1	""	"For category A if the shapes were shaped like an L it usually went to category A and for category B were usually t shape. So If the horizontal line was closer to the bottom of the vertical end it usually went to Category A. If the horizontal line was near the top or makes a t shape it went to B"	"Category A was L shaped and Category b was t shapes "	7.73515	464.109	29	2	0.5	"tl_10_120.jpg"
132786	"test-sort"	0	1	148284	"p363852"	"high"	"left"	"A2ETY1O927Z1IF"	30	1	40	"lib/images/tl_40_150.jpg"	"L"	"left"	"tl_40_150.jpg"	515	298	149	348	130282	1	"left"	149	348	1	""	"For category A if the shapes were shaped like an L it usually went to category A and for category B were usually t shape. So If the horizontal line was closer to the bottom of the vertical end it usually went to Category A. If the horizontal line was near the top or makes a t shape it went to B"	"Category A was L shaped and Category b was t shapes "	7.73515	464.109	30	2	0.5	"tl_40_150.jpg"
112986	"test-sort"	0	3	265553	"p363852"	"high"	"left"	"A2ETY1O927Z1IF"	1	1	1	"lib/images/tl_50_90.jpg"	"T"	"right"	"tl_50_90.jpg"	515	298	881	348	1406	1	"right"	881	348	2	""	"For category A if the shapes were shaped like an L it usually went to category A and for category B were usually t shape. So If the horizontal line was closer to the bottom of the vertical end it usually went to Category A. If the horizontal line was near the top or makes a t shape it went to B"	"Category A was L shaped and Category b was t shapes "	7.73515	464.109	31	3	0.5	"tl_50_90.jpg"
112986	"test-sort"	0	3	265553	"p363852"	"high"	"left"	"A2ETY1O927Z1IF"	2	1	2	"lib/images/tl_30_30.jpg"	"T"	"right"	"tl_30_30.jpg"	515	298	881	348	3953	1	"right"	881	348	2	""	"For category A if the shapes were shaped like an L it usually went to category A and for category B were usually t shape. So If the horizontal line was closer to the bottom of the vertical end it usually went to Category A. If the horizontal line was near the top or makes a t shape it went to B"	"Category A was L shaped and Category b was t shapes "	7.73515	464.109	32	3	0.5	"tl_30_30.jpg"
112986	"test-sort"	0	3	265553	"p363852"	"high"	"left"	"A2ETY1O927Z1IF"	3	1	3	"lib/images/tl_10_90.jpg"	"L"	"left"	"tl_10_90.jpg"	515	298	149	348	6841	1	"left"	149	348	2	""	"For category A if the shapes were shaped like an L it usually went to category A and for category B were usually t shape. So If the horizontal line was closer to the bottom of the vertical end it usually went to Category A. If the horizontal line was near the top or makes a t shape it went to B"	"Category A was L shaped and Category b was t shapes "	7.73515	464.109	33	3	0.5	"tl_10_90.jpg"
112986	"test-sort"	0	3	265553	"p363852"	"high"	"left"	"A2ETY1O927Z1IF"	4	1	4	"lib/images/tl_30_0.jpg"	"T"	"right"	"tl_30_0.jpg"	515	298	881	348	9109	1	"right"	881	348	2	""	"For category A if the shapes were shaped like an L it usually went to category A and for category B were usually t shape. So If the horizontal line was closer to the bottom of the vertical end it usually went to Category A. If the horizontal line was near the top or makes a t shape it went to B"	"Category A was L shaped and Category b was t shapes "	7.73515	464.109	34	3	0.5	"tl_30_0.jpg"
112986	"test-sort"	0	3	265553	"p363852"	"high"	"left"	"A2ETY1O927Z1IF"	5	1	5	"lib/images/tl_50_60.jpg"	"T"	"right"	"tl_50_60.jpg"	515	298	881	348	11510	1	"right"	881	348	2	""	"For category A if the shapes were shaped like an L it usually went to category A and for category B were usually t shape. So If the horizontal line was closer to the bottom of the vertical end it usually went to Category A. If the horizontal line was near the top or makes a t shape it went to B"	"Category A was L shaped and Category b was t shapes "	7.73515	464.109	35	3	0.5	"tl_50_60.jpg"
112986	"test-sort"	0	3	265553	"p363852"	"high"	"left"	"A2ETY1O927Z1IF"	6	1	6	"lib/images/tl_10_150.jpg"	"L"	"left"	"tl_10_150.jpg"	515	298	149	348	13745	1	"left"	149	348	2	""	"For category A if the shapes were shaped like an L it usually went to category A and for category B were usually t shape. So If the horizontal line was closer to the bottom of the vertical end it usually went to Category A. If the horizontal line was near the top or makes a t shape it went to B"	"Category A was L shaped and Category b was t shapes "	7.73515	464.109	36	3	0.5	"tl_10_150.jpg"
112986	"test-sort"	0	3	265553	"p363852"	"high"	"left"	"A2ETY1O927Z1IF"	7	1	7	"lib/images/tl_50_120.jpg"	"T"	"right"	"tl_50_120.jpg"	515	298	881	348	16379	1	"right"	881	348	2	""	"For category A if the shapes were shaped like an L it usually went to category A and for category B were usually t shape. So If the horizontal line was closer to the bottom of the vertical end it usually went to Category A. If the horizontal line was near the top or makes a t shape it went to B"	"Category A was L shaped and Category b was t shapes "	7.73515	464.109	37	3	0.5	"tl_50_120.jpg"
112986	"test-sort"	0	3	265553	"p363852"	"high"	"left"	"A2ETY1O927Z1IF"	8	1	8	"lib/images/tl_40_0.jpg"	"T"	"right"	"tl_40_0.jpg"	515	298	65	319	19646	0	"left"	881	348	2	""	"For category A if the shapes were shaped like an L it usually went to category A and for category B were usually t shape. So If the horizontal line was closer to the bottom of the vertical end it usually went to Category A. If the horizontal line was near the top or makes a t shape it went to B"	"Category A was L shaped and Category b was t shapes "	7.73515	464.109	38	3	0.5	"tl_40_0.jpg"
112986	"test-sort"	0	3	265553	"p363852"	"high"	"left"	"A2ETY1O927Z1IF"	8	0	9	"lib/images/tl_40_0.jpg"	"T"	"right"	"tl_40_0.jpg"	515	298	881	348	24384	1	"right"	881	348	2	""	"For category A if the shapes were shaped like an L it usually went to category A and for category B were usually t shape. So If the horizontal line was closer to the bottom of the vertical end it usually went to Category A. If the horizontal line was near the top or makes a t shape it went to B"	"Category A was L shaped and Category b was t shapes "	7.73515	464.109	38	3	0.5	"tl_40_0.jpg"
112986	"test-sort"	0	3	265553	"p363852"	"high"	"left"	"A2ETY1O927Z1IF"	9	1	10	"lib/images/tl_0_120.jpg"	"L"	"left"	"tl_0_120.jpg"	515	298	149	348	26867	1	"left"	149	348	2	""	"For category A if the shapes were shaped like an L it usually went to category A and for category B were usually t shape. So If the horizontal line was closer to the bottom of the vertical end it usually went to Category A. If the horizontal line was near the top or makes a t shape it went to B"	"Category A was L shaped and Category b was t shapes "	7.73515	464.109	39	3	0.5	"tl_0_120.jpg"
112986	"test-sort"	0	3	265554	"p363852"	"high"	"left"	"A2ETY1O927Z1IF"	10	1	11	"lib/images/tl_40_150.jpg"	"L"	"left"	"tl_40_150.jpg"	515	298	149	348	29504	1	"left"	149	348	2	""	"For category A if the shapes were shaped like an L it usually went to category A and for category B were usually t shape. So If the horizontal line was closer to the bottom of the vertical end it usually went to Category A. If the horizontal line was near the top or makes a t shape it went to B"	"Category A was L shaped and Category b was t shapes "	7.73515	464.109	40	3	0.5	"tl_40_150.jpg"
112986	"test-sort"	0	3	265554	"p363852"	"high"	"left"	"A2ETY1O927Z1IF"	11	1	12	"lib/images/tl_30_150.jpg"	"L"	"left"	"tl_30_150.jpg"	515	298	149	348	31757	1	"left"	149	348	2	""	"For category A if the shapes were shaped like an L it usually went to category A and for category B were usually t shape. So If the horizontal line was closer to the bottom of the vertical end it usually went to Category A. If the horizontal line was near the top or makes a t shape it went to B"	"Category A was L shaped and Category b was t shapes "	7.73515	464.109	41	3	0.5	"tl_30_150.jpg"
112986	"test-sort"	0	3	265555	"p363852"	"high"	"left"	"A2ETY1O927Z1IF"	12	1	13	"lib/images/tl_40_30.jpg"	"T"	"right"	"tl_40_30.jpg"	515	298	192	335	34953	0	"left"	881	348	2	""	"For category A if the shapes were shaped like an L it usually went to category A and for category B were usually t shape. So If the horizontal line was closer to the bottom of the vertical end it usually went to Category A. If the horizontal line was near the top or makes a t shape it went to B"	"Category A was L shaped and Category b was t shapes "	7.73515	464.109	42	3	0.5	"tl_40_30.jpg"
112986	"test-sort"	0	3	265555	"p363852"	"high"	"left"	"A2ETY1O927Z1IF"	12	0	14	"lib/images/tl_40_30.jpg"	"T"	"right"	"tl_40_30.jpg"	515	298	881	348	39694	1	"right"	881	348	2	""	"For category A if the shapes were shaped like an L it usually went to category A and for category B were usually t shape. So If the horizontal line was closer to the bottom of the vertical end it usually went to Category A. If the horizontal line was near the top or makes a t shape it went to B"	"Category A was L shaped and Category b was t shapes "	7.73515	464.109	42	3	0.5	"tl_40_30.jpg"
112986	"test-sort"	0	3	265555	"p363852"	"high"	"left"	"A2ETY1O927Z1IF"	13	1	15	"lib/images/tl_10_0.jpg"	"T"	"right"	"tl_10_0.jpg"	515	298	881	348	42613	1	"right"	881	348	2	""	"For category A if the shapes were shaped like an L it usually went to category A and for category B were usually t shape. So If the horizontal line was closer to the bottom of the vertical end it usually went to Category A. If the horizontal line was near the top or makes a t shape it went to B"	"Category A was L shaped and Category b was t shapes "	7.73515	464.109	43	3	0.5	"tl_10_0.jpg"
112986	"test-sort"	0	3	265555	"p363852"	"high"	"left"	"A2ETY1O927Z1IF"	14	1	16	"lib/images/tl_30_60.jpg"	"T"	"right"	"tl_30_60.jpg"	515	298	881	348	44959	1	"right"	881	348	2	""	"For category A if the shapes were shaped like an L it usually went to category A and for category B were usually t shape. So If the horizontal line was closer to the bottom of the vertical end it usually went to Category A. If the horizontal line was near the top or makes a t shape it went to B"	"Category A was L shaped and Category b was t shapes "	7.73515	464.109	44	3	0.5	"tl_30_60.jpg"
112986	"test-sort"	0	3	265555	"p363852"	"high"	"left"	"A2ETY1O927Z1IF"	15	1	17	"lib/images/tl_20_120.jpg"	"L"	"left"	"tl_20_120.jpg"	515	298	149	348	47147	1	"left"	149	348	2	""	"For category A if the shapes were shaped like an L it usually went to category A and for category B were usually t shape. So If the horizontal line was closer to the bottom of the vertical end it usually went to Category A. If the horizontal line was near the top or makes a t shape it went to B"	"Category A was L shaped and Category b was t shapes "	7.73515	464.109	45	3	0.5	"tl_20_120.jpg"
112986	"test-sort"	0	3	265555	"p363852"	"high"	"left"	"A2ETY1O927Z1IF"	16	1	18	"lib/images/tl_20_30.jpg"	"T"	"right"	"tl_20_30.jpg"	515	298	881	348	49617	1	"right"	881	348	2	""	"For category A if the shapes were shaped like an L it usually went to category A and for category B were usually t shape. So If the horizontal line was closer to the bottom of the vertical end it usually went to Category A. If the horizontal line was near the top or makes a t shape it went to B"	"Category A was L shaped and Category b was t shapes "	7.73515	464.109	46	4	0.5	"tl_20_30.jpg"
112986	"test-sort"	0	3	265555	"p363852"	"high"	"left"	"A2ETY1O927Z1IF"	17	1	19	"lib/images/tl_50_0.jpg"	"T"	"right"	"tl_50_0.jpg"	515	298	881	348	51814	1	"right"	881	348	2	""	"For category A if the shapes were shaped like an L it usually went to category A and for category B were usually t shape. So If the horizontal line was closer to the bottom of the vertical end it usually went to Category A. If the horizontal line was near the top or makes a t shape it went to B"	"Category A was L shaped and Category b was t shapes "	7.73515	464.109	47	4	0.5	"tl_50_0.jpg"
112986	"test-sort"	0	3	265555	"p363852"	"high"	"left"	"A2ETY1O927Z1IF"	18	1	20	"lib/images/tl_0_30.jpg"	"L"	"left"	"tl_0_30.jpg"	515	298	844	341	54539	0	"right"	149	348	2	""	"For category A if the shapes were shaped like an L it usually went to category A and for category B were usually t shape. So If the horizontal line was closer to the bottom of the vertical end it usually went to Category A. If the horizontal line was near the top or makes a t shape it went to B"	"Category A was L shaped and Category b was t shapes "	7.73515	464.109	48	4	0.5	"tl_0_30.jpg"
112986	"test-sort"	0	3	265555	"p363852"	"high"	"left"	"A2ETY1O927Z1IF"	18	0	21	"lib/images/tl_0_30.jpg"	"L"	"left"	"tl_0_30.jpg"	515	298	149	348	59322	1	"left"	149	348	2	""	"For category A if the shapes were shaped like an L it usually went to category A and for category B were usually t shape. So If the horizontal line was closer to the bottom of the vertical end it usually went to Category A. If the horizontal line was near the top or makes a t shape it went to B"	"Category A was L shaped and Category b was t shapes "	7.73515	464.109	48	4	0.5	"tl_0_30.jpg"
112986	"test-sort"	0	3	265555	"p363852"	"high"	"left"	"A2ETY1O927Z1IF"	19	1	22	"lib/images/tl_40_90.jpg"	"T"	"right"	"tl_40_90.jpg"	515	298	881	348	62916	1	"right"	881	348	2	""	"For category A if the shapes were shaped like an L it usually went to category A and for category B were usually t shape. So If the horizontal line was closer to the bottom of the vertical end it usually went to Category A. If the horizontal line was near the top or makes a t shape it went to B"	"Category A was L shaped and Category b was t shapes "	7.73515	464.109	49	4	0.5	"tl_40_90.jpg"
112986	"test-sort"	0	3	265555	"p363852"	"high"	"left"	"A2ETY1O927Z1IF"	20	1	23	"lib/images/tl_10_60.jpg"	"L"	"left"	"tl_10_60.jpg"	515	298	796	342	66510	0	"right"	149	348	2	""	"For category A if the shapes were shaped like an L it usually went to category A and for category B were usually t shape. So If the horizontal line was closer to the bottom of the vertical end it usually went to Category A. If the horizontal line was near the top or makes a t shape it went to B"	"Category A was L shaped and Category b was t shapes "	7.73515	464.109	50	4	0.5	"tl_10_60.jpg"
112986	"test-sort"	0	3	265555	"p363852"	"high"	"left"	"A2ETY1O927Z1IF"	20	0	24	"lib/images/tl_10_60.jpg"	"L"	"left"	"tl_10_60.jpg"	515	298	149	348	71695	1	"left"	149	348	2	""	"For category A if the shapes were shaped like an L it usually went to category A and for category B were usually t shape. So If the horizontal line was closer to the bottom of the vertical end it usually went to Category A. If the horizontal line was near the top or makes a t shape it went to B"	"Category A was L shaped and Category b was t shapes "	7.73515	464.109	50	4	0.5	"tl_10_60.jpg"
112986	"test-sort"	0	3	265555	"p363852"	"high"	"left"	"A2ETY1O927Z1IF"	21	1	25	"lib/images/tl_30_120.jpg"	"L"	"left"	"tl_30_120.jpg"	515	298	149	348	74413	1	"left"	149	348	2	""	"For category A if the shapes were shaped like an L it usually went to category A and for category B were usually t shape. So If the horizontal line was closer to the bottom of the vertical end it usually went to Category A. If the horizontal line was near the top or makes a t shape it went to B"	"Category A was L shaped and Category b was t shapes "	7.73515	464.109	51	4	0.5	"tl_30_120.jpg"
112986	"test-sort"	0	3	265555	"p363852"	"high"	"left"	"A2ETY1O927Z1IF"	22	1	26	"lib/images/tl_20_0.jpg"	"T"	"right"	"tl_20_0.jpg"	515	298	242	307	77248	0	"left"	881	348	2	""	"For category A if the shapes were shaped like an L it usually went to category A and for category B were usually t shape. So If the horizontal line was closer to the bottom of the vertical end it usually went to Category A. If the horizontal line was near the top or makes a t shape it went to B"	"Category A was L shaped and Category b was t shapes "	7.73515	464.109	52	4	0.5	"tl_20_0.jpg"
112986	"test-sort"	0	3	265555	"p363852"	"high"	"left"	"A2ETY1O927Z1IF"	22	0	27	"lib/images/tl_20_0.jpg"	"T"	"right"	"tl_20_0.jpg"	515	298	881	348	82222	1	"right"	881	348	2	""	"For category A if the shapes were shaped like an L it usually went to category A and for category B were usually t shape. So If the horizontal line was closer to the bottom of the vertical end it usually went to Category A. If the horizontal line was near the top or makes a t shape it went to B"	"Category A was L shaped and Category b was t shapes "	7.73515	464.109	52	4	0.5	"tl_20_0.jpg"
112986	"test-sort"	0	3	265555	"p363852"	"high"	"left"	"A2ETY1O927Z1IF"	23	1	28	"lib/images/tl_0_90.jpg"	"L"	"left"	"tl_0_90.jpg"	515	298	149	348	85359	1	"left"	149	348	2	""	"For category A if the shapes were shaped like an L it usually went to category A and for category B were usually t shape. So If the horizontal line was closer to the bottom of the vertical end it usually went to Category A. If the horizontal line was near the top or makes a t shape it went to B"	"Category A was L shaped and Category b was t shapes "	7.73515	464.109	53	4	0.5	"tl_0_90.jpg"
112986	"test-sort"	0	3	265555	"p363852"	"high"	"left"	"A2ETY1O927Z1IF"	24	1	29	"lib/images/tl_40_60.jpg"	"T"	"right"	"tl_40_60.jpg"	515	298	881	348	87936	1	"right"	881	348	2	""	"For category A if the shapes were shaped like an L it usually went to category A and for category B were usually t shape. So If the horizontal line was closer to the bottom of the vertical end it usually went to Category A. If the horizontal line was near the top or makes a t shape it went to B"	"Category A was L shaped and Category b was t shapes "	7.73515	464.109	54	4	0.5	"tl_40_60.jpg"
112986	"test-sort"	0	3	265555	"p363852"	"high"	"left"	"A2ETY1O927Z1IF"	25	1	30	"lib/images/tl_0_60.jpg"	"L"	"left"	"tl_0_60.jpg"	515	298	787	364	91630	0	"right"	149	348	2	""	"For category A if the shapes were shaped like an L it usually went to category A and for category B were usually t shape. So If the horizontal line was closer to the bottom of the vertical end it usually went to Category A. If the horizontal line was near the top or makes a t shape it went to B"	"Category A was L shaped and Category b was t shapes "	7.73515	464.109	55	4	0.5	"tl_0_60.jpg"
